StudyID,ParticipantID,TestID,TrialID,Training,isDesigner,First,Second,Same,Response,Correct,ET,RT,RTnorm,Date,Correctnorm,AUC,AUCnorm
Main,0,0,1,Graphic designer,True,d_BC,d_AD,False,Sure different,0.65,800.0,4807.3,8.444751749746302,2022-06-04 18:33:12,1.8754889808102944,0.6919191919191919,1.9647458431152662
Main,0,1,1,Graphic designer,True,j_AD,j_BC,False,Sure same,0.6527777777777778,422.2,4189.75,8.325092583457579,2022-06-04 18:33:12,1.8813181614606647,0.6527777777777777,1.8813181614606642
Main,1,0,1,Other designer,True,d_AD,d_BC,False,Probably same,0.9,800.0,4196.5,8.292294455284745,2022-06-04 18:12:59,2.498091544796509,0.9343434343434344,2.6233415999334895
Main,1,1,1,Other designer,True,r_AB,r_AD,True,Sure same,0.7638888888888888,188.9,3113.8194444444443,8.026521750271984,2022-06-04 18:12:59,2.1267784793154387,0.8117283950617283,2.243952529680746
Main,2,0,1,Graphic designer,True,d_AD,d_BC,False,Sure different,0.85,800.0,4043.85,8.260707108755891,2022-06-04 18:11:57,2.34619382340565,0.8939393939393938,2.478153219352368
Main,2,1,1,Graphic designer,True,a_DD,a_AA,False,Sure different,0.8611111111111112,266.7,3457.375,8.133272737436855,2022-06-04 18:11:57,2.3778061571919618,0.8734567901234568,2.4142044406129255
Main,3,0,1,Non-designer,False,d_BC,d_AD,False,Probably same,0.5,800.0,4077.05,8.211636426329362,2022-06-04 17:49:58,1.5707963267948968,0.51010101010101,1.5909997213962161
Main,3,1,1,Non-designer,False,a_AB,a_AD,True,Probably same,0.5138888888888888,500.0,3072.1944444444443,8.0198309284506,2022-06-04 17:49:58,1.5985776780586918,0.5424382716049383,1.6557751106241807
Main,4,0,1,Typographer,True,d_BC,d_AD,False,Probably same,0.95,800.0,3931.05,8.23712726555652,2022-06-04 17:49:50,2.6905658417935303,0.9949494949494949,2.999338928698884
Main,4,1,1,Typographer,True,h_AA,h_DD,False,Sure different,0.8194444444444444,150.0,3151.7361111111113,8.040393533754417,2022-06-04 17:49:50,2.263849408374869,0.8607253086419754,2.3766912235609086
Main,5,0,1,Graphic designer,True,d_AD,d_BC,False,Probably different,0.85,800.0,4728.6,8.40631062213659,2022-06-04 17:01:01,2.34619382340565,0.9696969696969696,2.791654562258415
Main,5,1,1,Graphic designer,True,a_DD,a_AA,False,Sure different,0.7083333333333334,266.7,3390.8194444444443,8.118110790365911,2022-06-04 17:01:01,2.0005717580994244,0.7731481481481481,2.1487323082953296
Main,6,0,1,Non-designer,False,d_BC,d_AD,False,Sure different,0.45,800.0,4229.0,8.327588347479098,2022-06-04 16:54:42,1.4706289056333368,0.4494949494949495,1.4696136639511423
Main,6,1,1,Non-designer,False,j_BC,j_AD,False,Sure same,0.7083333333333334,577.8,3674.3888888888887,8.19217767071177,2022-06-04 16:54:42,2.0005717580994244,0.7083333333333334,2.0005717580994244
Main,7,0,1,Non-designer,False,d_AD,d_BC,False,Sure same,0.75,800.0,3790.6,8.216584751733516,2022-06-04 16:35:07,2.0943951023931953,0.8383838383838383,2.3141594803875867
Main,7,1,1,Non-designer,False,t_AA,t_AA,True,Sure different,0.5555555555555556,305.6,3221.5694444444443,8.06705148376847,2022-06-04 16:35:07,1.6821373411358604,0.5478395061728395,1.6666219256410835
Main,8,0,1,Graphic designer,True,d_BC,d_AD,False,Sure different,0.95,800.0,4761.7,8.368096687952626,2022-06-04 16:34:34,2.6905658417935303,1.0,3.141592653589793
Main,8,1,1,Graphic designer,True,n_AD,n_AD,True,Probably same,0.7361111111111112,188.9,3806.6805555555557,8.182534568988354,2022-06-04 16:34:34,2.0626064213603414,0.7970679012345679,2.206987163504505
Main,9,0,1,Graphic designer,True,d_BC,d_AD,False,Probably same,0.9,800.0,4187.85,8.277902387710231,2022-06-04 15:39:21,2.498091544796509,0.9646464646464645,2.763290138693442
Main,9,1,1,Graphic designer,True,p_AD,p_AD,True,Probably same,0.75,188.9,3055.4305555555557,8.013193299231503,2022-06-04 15:39:21,2.0943951023931953,0.8209876543209876,2.267868115017841
Main,10,0,1,Other designer,True,d_AD,d_BC,False,Sure different,0.9,800.0,3508.35,8.140773061170808,2022-06-04 15:38:26,2.498091544796509,0.8888888888888888,2.4619188346815495
Main,10,1,1,Other designer,True,j_AA,j_AA,True,Sure same,0.8055555555555556,227.8,3324.6666666666665,8.074438922006259,2022-06-04 15:38:26,2.2282598831765403,0.8109567901234567,2.241980306160119
Main,11,0,1,Graphic designer,True,d_BC,d_AD,False,Probably different,0.9,800.0,4620.95,8.376421605375688,2022-06-04 14:52:57,2.498091544796509,0.8939393939393938,2.478153219352368
Main,11,1,1,Graphic designer,True,b_DD,b_AA,False,Sure different,0.8472222222222222,227.8,3717.125,8.193606240026272,2022-06-04 14:52:57,2.3384438482029277,0.8761574074074074,2.4223650555148444
Main,12,0,1,Non-designer,False,d_BC,d_AD,False,Probably same,0.9,800.0,4174.5,8.285949488988479,2022-06-04 14:36:15,2.498091544796509,0.9444444444444444,2.6657104039293764
Main,12,1,1,Non-designer,False,z_AD,z_AD,True,Sure same,0.75,188.9,3388.4861111111113,8.110290497479463,2022-06-04 14:36:15,2.0943951023931953,0.7372685185185185,2.0652343303995315
Main,13,0,1,Graphic designer,True,d_BC,d_AD,False,Probably different,0.8,800.0,5409.35,8.37065808428487,2022-06-04 14:30:50,2.214297435588181,0.8232323232323232,2.2737377824890435
Main,13,1,1,Graphic designer,True,e_AA,e_AA,True,Sure same,0.7361111111111112,305.6,2955.347222222222,7.971818979786988,2022-06-04 14:30:50,2.0626064213603414,0.7488425925925926,2.0917242405685297
Main,14,0,1,Graphic designer,True,d_BC,d_AD,False,Sure same,0.65,800.0,3406.35,8.08692441805675,2022-06-04 13:32:02,1.8754889808102944,0.696969696969697,1.9757099762829764
Main,14,1,1,Graphic designer,True,z_AA,z_AA,True,Sure same,0.8194444444444444,383.3,2924.7361111111113,7.967300669229264,2022-06-04 13:32:02,2.263849408374869,0.8310185185185185,2.294329802056578
Main,15,0,1,Graphic designer,True,d_BC,d_AD,False,Sure different,0.8,800.0,3913.65,8.211722812149459,2022-06-04 12:35:22,2.214297435588181,0.8686868686868685,2.3999704234878205
Main,15,1,1,Graphic designer,True,j_AD,j_BD,False,Probably same,0.6805555555555556,305.6,3198.027777777778,8.048452355800364,2022-06-04 12:35:22,1.9402554566946664,0.746141975308642,2.085508058317676
Main,16,0,1,Graphic designer,True,d_BC,d_AD,False,Probably same,0.95,800.0,3708.05,8.175315310012452,2022-06-04 11:52:51,2.6905658417935303,0.9848484848484849,2.8947837201202202
Main,16,1,1,Graphic designer,True,r_AA,r_AA,True,Probably same,0.8194444444444444,150.0,2785.875,7.921905867839808,2022-06-04 11:52:51,2.263849408374869,0.8580246913580247,2.368922583306845
Main,17,0,1,Non-designer,False,d_AD,d_BC,False,Probably same,0.95,800.0,4856.6,8.432335981315502,2022-06-04 11:09:58,2.6905658417935303,0.9898989898989898,2.9402451464886394
Main,17,1,1,Non-designer,False,p_AD,p_BC,False,Probably same,0.75,150.0,3659.847222222222,8.173977502549313,2022-06-04 11:09:58,2.0943951023931953,0.7743055555555556,2.1514984614969883
Main,18,0,1,Non-designer,False,d_AD,d_BC,False,Sure different,0.7,800.0,3832.45,8.189728980019872,2022-06-04 10:41:48,1.9823131728623846,0.7474747474747474,2.0885730336456545
Main,18,1,1,Non-designer,False,t_AA,t_DD,False,Sure different,0.6805555555555556,383.3,3146.6944444444443,8.046219891774827,2022-06-04 10:41:48,1.9402554566946664,0.7272376543209877,2.042579414057578
Main,19,0,1,Non-designer,False,d_AD,d_BC,False,Probably different,0.9,800.0,4450.4,8.377113462721024,2022-06-04 10:04:17,2.498091544796509,0.9595959595959596,2.7368199162761746
Main,19,1,1,Non-designer,False,r_AA,r_AA,True,Sure same,0.8333333333333334,227.8,3763.2638888888887,8.141653264471346,2022-06-04 10:04:17,2.300523983021863,0.9104938271604938,2.533935056393744
Main,20,0,1,Non-designer,False,d_AD,d_BC,False,Probably same,0.5,800.0,5341.35,8.512573536646695,2022-06-04 09:48:50,1.5707963267948968,0.5757575757575758,1.7228972684816797
Main,20,1,1,Non-designer,False,e_AA,e_AA,True,Sure same,0.6944444444444444,500.0,4392.569444444444,8.362764829949233,2022-06-04 09:48:50,1.9702215666754914,0.7445987654320988,2.081965761853219
Main,21,0,1,Non-designer,False,d_BC,d_AD,False,Probably same,0.95,800.0,4281.65,8.267847625436312,2022-06-04 09:30:10,2.6905658417935303,1.0,3.141592653589793
Main,21,1,1,Non-designer,False,q_AD,q_AD,True,Sure same,0.8055555555555556,150.0,3845.472222222222,8.167624829347638,2022-06-04 09:30:10,2.2282598831765403,0.8371913580246912,2.310924714087248
Main,22,0,1,Non-designer,False,d_BC,d_AD,False,Probably same,0.8,800.0,4236.95,8.316536711271908,2022-06-04 09:29:24,2.214297435588181,0.9646464646464646,2.763290138693442
Main,22,1,1,Non-designer,False,h_BD,h_AD,False,Sure different,0.7083333333333334,266.7,3155.4861111111113,8.047434143576938,2022-06-04 09:29:24,2.0005717580994244,0.7820216049382717,2.1700704223328753
Main,23,0,1,Non-designer,False,d_AD,d_BC,False,Sure same,0.65,800.0,3967.15,8.217525338377326,2022-06-04 09:23:32,1.8754889808102944,0.7272727272727273,2.0426581640745387
Main,23,1,1,Non-designer,False,p_AB,p_AD,True,Sure same,0.7638888888888888,383.3,3367.597222222222,8.107694994041363,2022-06-04 09:23:32,2.1267784793154387,0.7804783950617282,2.166337434706175
Main,24,0,1,Non-designer,False,d_AD,d_BC,False,Sure same,0.55,800.0,4479.75,8.30541018316498,2022-06-04 08:39:44,1.6709637479564565,0.6363636363636364,1.847022957558488
Main,24,1,1,Non-designer,False,r_AD,r_BD,False,Sure same,0.8194444444444444,422.2,3360.8194444444443,8.108330950649064,2022-06-04 08:39:44,2.263849408374869,0.8271604938271604,2.2840806912495526
Main,25,0,1,Non-designer,False,d_AD,d_BC,False,Sure same,0.65,800.0,4964.9,8.448568290754135,2022-06-04 08:24:03,1.8754889808102944,0.6969696969696969,1.9757099762829764
Main,25,1,1,Non-designer,False,b_AD,b_AB,True,Sure same,0.6527777777777778,344.4,3851.5416666666665,8.228541959815423,2022-06-04 08:24:03,1.8813181614606647,0.6805555555555556,1.9402554566946664
Main,26,0,1,Letter designer,True,d_AD,d_BC,False,Probably same,0.9,800.0,3945.4,8.243100456741518,2022-06-04 07:54:12,2.498091544796509,0.9595959595959596,2.7368199162761746
Main,26,1,1,Letter designer,True,q_BC,q_AD,False,Probably different,0.8055555555555556,188.9,3663.3333333333335,8.15456252581383,2022-06-04 07:54:12,2.2282598831765403,0.8726851851851851,2.4118865644285092
Main,27,0,1,Non-designer,False,d_BC,d_AD,False,Probably different,0.85,800.0,4188.65,8.29530704607435,2022-06-04 07:22:25,2.34619382340565,0.8636363636363636,2.385136268921422
Main,27,1,1,Non-designer,False,b_BD,b_AD,False,Probably different,0.6944444444444444,266.7,3354.8611111111113,8.096028675069169,2022-06-04 07:22:25,1.9702215666754914,0.7160493827160495,2.017615048889003
Main,28,0,1,Non-designer,False,d_BC,d_AD,False,Sure same,0.8,800.0,5228.55,8.510103924804238,2022-06-04 07:19:24,2.214297435588181,0.7828282828282829,2.172025546861176
Main,28,1,1,Non-designer,False,j_AA,j_DD,False,Sure different,0.7083333333333334,266.7,4007.722222222222,8.261684629664616,2022-06-04 07:19:24,2.0005717580994244,0.7766203703703705,2.1570459066138725
Main,29,0,1,Non-designer,False,d_AD,d_BC,False,Sure same,0.95,800.0,4314.5,8.351141248718573,2022-06-04 07:07:37,2.6905658417935303,0.9444444444444444,2.6657104039293764
Main,29,1,1,Non-designer,False,r_AD,r_BD,False,Sure different,0.75,150.0,4018.75,8.270742600192158,2022-06-04 07:07:37,2.0943951023931953,0.8263888888888888,2.282041790980738
Main,30,0,1,Non-designer,False,d_BC,d_AD,False,Sure same,0.8,800.0,4283.4,8.310290650504003,2022-06-04 07:07:22,2.214297435588181,0.8131313131313131,2.2475463652006167
Main,30,1,1,Non-designer,False,c_AA,c_AA,True,Sure same,0.7916666666666666,266.7,3501.0694444444443,8.141828583775245,2022-06-04 07:07:22,2.1936229122068998,0.8572530864197531,2.3667143373354973
Main,31,0,1,Non-designer,False,d_AD,d_BC,False,Probably same,0.55,800.0,3875.05,8.229267329731734,2022-06-04 07:06:50,1.6709637479564565,0.6212121212121212,1.8156601810005182
Main,31,1,1,Non-designer,False,p_AA,p_AA,True,Sure same,0.7777777777777778,422.2,3287.9444444444443,8.091280071331699,2022-06-04 07:06:50,2.1598272970111707,0.7777777777777779,2.159827297011171
Main,32,0,1,Non-designer,False,d_BC,d_AD,False,Probably same,0.9,800.0,4330.0,8.227985950421395,2022-06-04 07:00:12,2.498091544796509,0.9444444444444444,2.6657104039293764
Main,32,1,1,Non-designer,False,r_BC,r_AD,False,Probably same,0.7083333333333334,188.9,3254.097222222222,8.072261487109179,2022-06-04 07:00:12,2.0005717580994244,0.7662037037037037,2.1322383507816243
Main,33,0,1,Non-designer,False,d_AD,d_BC,False,Sure different,0.9,800.0,4050.6,8.272446367226097,2022-06-04 06:44:46,2.498091544796509,0.8939393939393939,2.478153219352368
Main,33,1,1,Non-designer,False,h_BD,h_AD,False,Sure different,0.8472222222222222,227.8,3174.1944444444443,8.049692583170762,2022-06-04 06:44:46,2.3384438482029277,0.8738425925925926,2.415365644022375
Main,34,0,1,Non-designer,False,d_BC,d_AD,False,Probably different,0.95,800.0,4131.85,8.288863851826552,2022-06-04 06:38:53,2.6905658417935303,1.0,3.141592653589793
Main,34,1,1,Non-designer,False,j_BD,j_AD,False,Sure same,0.7638888888888888,188.9,3144.277777777778,8.039659748835719,2022-06-04 06:38:53,2.1267784793154387,0.7924382716049383,2.19552417130554
Main,35,0,1,Graphic designer,True,d_BC,d_AD,False,Probably same,0.85,800.0,5395.15,8.486510523357225,2022-06-04 06:32:37,2.34619382340565,0.9494949494949494,2.688254026581661
Main,35,1,1,Graphic designer,True,c_AA,c_AA,True,Sure same,0.8611111111111112,227.8,3744.5555555555557,8.177850758486288,2022-06-04 06:32:37,2.3778061571919618,0.8499228395061729,2.3459777536791875
Main,36,0,1,Non-designer,False,d_BC,d_AD,False,Probably same,0.9,800.0,4479.7,8.317731617041328,2022-06-04 06:20:37,2.498091544796509,0.9545454545454546,2.711892987438369
Main,36,1,1,Non-designer,False,e_AD,e_BC,False,Probably same,0.7638888888888888,188.9,3395.6944444444443,8.110682246544306,2022-06-04 06:20:37,2.1267784793154387,0.8294753086419754,2.2902191233323035
Main,37,0,1,Non-designer,False,d_AD,d_BC,False,Probably different,0.75,800.0,5196.3,8.476740263446343,2022-06-04 06:18:40,2.0943951023931953,0.803030303030303,2.2218949117660145
Main,37,1,1,Non-designer,False,c_AD,c_BD,False,Probably same,0.7222222222222222,344.4,3733.0694444444443,8.212591594449911,2022-06-04 06:18:40,2.031350318476219,0.7361111111111112,2.0626064213603414
Main,38,0,1,Non-designer,False,d_BC,d_AD,False,Sure same,0.7,800.0,4074.05,8.270856245950837,2022-06-04 06:00:47,1.9823131728623846,0.6262626262626263,1.8260855332213166
Main,38,1,1,Non-designer,False,b_AD,b_AD,True,Probably same,0.8055555555555556,344.4,3376.6805555555557,8.109074619806107,2022-06-04 06:00:47,2.2282598831765403,0.8410493827160492,2.3214252009610052
Main,39,0,1,Non-designer,False,d_AD,d_BC,False,Probably same,0.8,800.0,4524.9,8.33535204247482,2022-06-04 05:58:54,2.214297435588181,0.8787878787878787,2.4303874876287264
Main,39,1,1,Non-designer,False,b_AA,b_AA,True,Sure same,0.7638888888888888,266.7,3683.9861111111113,8.198213665085074,2022-06-04 05:58:54,2.1267784793154387,0.804783950617284,2.226311729227957
Main,40,0,1,Non-designer,False,d_BC,d_AD,False,Probably same,0.7,800.0,4945.05,8.475829167404168,2022-06-04 05:56:17,1.9823131728623846,0.7424242424242424,2.0769862464215
Main,40,1,1,Non-designer,False,t_BC,t_AD,False,Sure same,0.75,344.4,3575.75,8.16903929241068,2022-06-04 05:56:17,2.0943951023931953,0.7692901234567902,2.139547508544338
Main,41,0,1,Letter designer,True,d_BC,d_AD,False,Sure different,0.85,800.0,3973.25,8.24664166080675,2022-06-04 05:55:53,2.34619382340565,0.8434343434343433,2.3279680930464317
Main,41,1,1,Letter designer,True,h_AA,h_AA,True,Probably same,0.7361111111111112,266.7,3234.1805555555557,8.061711012256836,2022-06-04 05:55:53,2.0626064213603414,0.736111111111111,2.062606421360341
Main,42,0,1,Non-designer,False,d_AD,d_BC,False,Probably different,0.65,800.0,4053.9,8.271955493273143,2022-06-04 05:42:47,1.8754889808102944,0.5959595959595959,1.7639136448520367
Main,42,1,1,Non-designer,False,z_AD,z_AD,True,Probably same,0.7083333333333334,422.2,3522.5694444444443,8.155072822173985,2022-06-04 05:42:47,2.0005717580994244,0.7561728395061729,2.1087103092993993
Main,43,0,1,Non-designer,False,d_AD,d_BC,False,Probably different,0.85,800.0,4655.9,8.417173781856096,2022-06-04 05:31:20,2.34619382340565,0.9545454545454546,2.711892987438369
Main,43,1,1,Non-designer,False,a_AB,a_AD,True,Sure same,0.6527777777777778,266.7,3699.472222222222,8.201104407737446,2022-06-04 05:31:20,1.8813181614606647,0.7345679012345678,2.0591082837018244
Main,44,0,1,Graphic designer,True,d_AD,d_BC,False,Sure different,0.9,800.0,3902.45,8.24794321273159,2022-06-04 05:30:18,2.498091544796509,0.9090909090909091,2.5290379152504547
Main,44,1,1,Graphic designer,True,n_AD,n_BD,False,Sure different,0.8055555555555556,227.8,2979.4861111111113,7.995008124392074,2022-06-04 05:30:18,2.2282598831765403,0.8155864197530863,2.253860698084078
Main,45,0,1,Non-designer,False,d_AD,d_BC,False,Probably same,0.75,800.0,4120.6,8.259784484288428,2022-06-04 05:22:05,2.0943951023931953,0.7828282828282829,2.172025546861176
Main,45,1,1,Non-designer,False,p_AA,p_AA,True,Sure same,0.7222222222222222,305.6,3206.8333333333335,8.061352968439738,2022-06-04 05:22:05,2.031350318476219,0.7145061728395061,2.014195433194902
Main,46,0,1,Other designer,True,d_BC,d_AD,False,Probably different,0.7,800.0,5155.5,8.500400483113133,2022-06-04 05:20:27,1.9823131728623846,0.7626262626262625,2.1238081708380796
Main,46,1,1,Other designer,True,b_AD,b_BD,False,Sure different,0.75,383.3,4025.402777777778,8.28316349005317,2022-06-04 05:20:27,2.0943951023931953,0.8449074074074074,2.332029562723863
Main,47,0,1,Other designer,True,d_BC,d_AD,False,Sure same,0.85,800.0,4304.05,8.339117353071341,2022-06-04 05:06:17,2.34619382340565,0.803030303030303,2.2218949117660145
Main,47,1,1,Other designer,True,n_AA,n_DD,False,Sure different,0.875,227.8,3160.7361111111113,8.044593067973617,2022-06-04 05:06:17,2.4188584057763776,0.8634259259259259,2.3845232585524703
Main,48,0,1,Non-designer,False,d_BC,d_AD,False,Sure different,0.75,800.0,4797.3,8.325094202318088,2022-06-04 04:39:56,2.0943951023931953,0.7626262626262625,2.1238081708380796
Main,48,1,1,Non-designer,False,r_AD,r_AB,True,Sure same,0.7638888888888888,344.4,2969.2083333333335,7.934444081188106,2022-06-04 04:39:56,2.1267784793154387,0.7797067901234569,2.164474480664474
Main,49,0,1,Non-designer,False,d_AD,d_BC,False,Sure same,0.45,800.0,3774.3,8.21226713427026,2022-06-04 04:19:43,1.4706289056333368,0.5,1.5707963267948968
Main,49,1,1,Non-designer,False,h_BC,h_AD,False,Sure same,0.5,500.0,3764.1111111111113,8.222435392481218,2022-06-04 04:19:43,1.5707963267948968,0.5,1.5707963267948968
Main,50,0,1,Non-designer,False,d_BC,d_AD,False,Sure same,0.65,800.0,4904.35,8.335050519352123,2022-06-04 04:05:49,1.8754889808102944,0.6818181818181819,1.9429648607552226
Main,50,1,1,Non-designer,False,h_AD,h_AD,True,Sure same,0.7777777777777778,344.4,3297.7083333333335,8.086645084013249,2022-06-04 04:05:49,2.1598272970111707,0.8070987654320989,2.2321650155791732
Main,51,0,1,Non-designer,False,d_AD,d_BC,False,Sure same,0.65,800.0,5632.15,8.519833784462937,2022-06-04 04:05:47,1.8754889808102944,0.6616161616161615,1.8999395085761193
Main,51,1,1,Non-designer,False,e_AD,e_AD,True,Sure same,0.6805555555555556,383.3,3788.6666666666665,8.217493866559778,2022-06-04 04:05:47,1.9402554566946664,0.7037037037037037,1.9904097103647407
Main,52,0,1,Non-designer,False,d_AD,d_BC,False,Sure same,0.75,800.0,4485.45,8.326019064104424,2022-06-04 03:52:40,2.0943951023931953,0.7626262626262625,2.1238081708380796
Main,52,1,1,Non-designer,False,b_AD,b_AD,True,Sure same,0.7777777777777778,266.7,3210.0555555555557,8.03356566652328,2022-06-04 03:52:40,2.1598272970111707,0.7777777777777779,2.159827297011171
Main,53,0,1,Non-designer,False,d_AD,d_BC,False,Probably different,0.75,800.0,3929.35,8.209524872081023,2022-06-04 02:29:27,2.0943951023931953,0.803030303030303,2.2218949117660145
Main,53,1,1,Non-designer,False,b_AD,b_BC,False,Probably different,0.75,305.6,2911.1944444444443,7.9622841493828656,2022-06-04 02:29:27,2.0943951023931953,0.7962962962962963,2.2050699749173925
Main,54,0,1,Non-designer,False,d_AD,d_BC,False,Probably different,0.85,800.0,4322.75,8.342493308916069,2022-06-04 01:48:59,2.34619382340565,0.8484848484848484,2.3419593256893587
Main,54,1,1,Non-designer,False,b_BD,b_AD,False,Sure different,0.6388888888888888,266.7,3892.8888888888887,8.247248300219898,2022-06-04 01:48:59,1.8522764000257417,0.7060185185185185,1.9954848968792354
Main,55,0,1,Other designer,True,d_AD,d_BC,False,Sure same,0.55,800.0,4038.55,8.263799528655545,2022-06-04 01:40:42,1.6709637479564565,0.5606060606060606,1.6923072434845772
Main,55,1,1,Other designer,True,z_AD,z_BD,False,Sure same,0.7638888888888888,461.1,3384.2638888888887,8.116102495953104,2022-06-04 01:40:42,2.1267784793154387,0.763888888888889,2.126778479315439
Main,56,0,1,Non-designer,False,d_BC,d_AD,False,Probably same,0.8,800.0,4527.25,8.348069018647108,2022-06-04 01:16:30,2.214297435588181,0.803030303030303,2.2218949117660145
Main,56,1,1,Non-designer,False,h_AD,h_AD,True,Probably different,0.5555555555555556,266.7,3079.027777777778,8.020923125618989,2022-06-04 01:16:30,1.6821373411358604,0.5586419753086419,1.6883508392758386
Main,57,0,1,Non-designer,False,d_AD,d_BC,False,Probably same,0.8,800.0,4399.7,8.368786998537628,2022-06-04 01:03:24,2.214297435588181,0.9292929292929293,2.6033012084423457
Main,57,1,1,Non-designer,False,j_AB,j_AD,True,Probably same,0.75,266.7,3641.1111111111113,8.174403567297823,2022-06-04 01:03:24,2.0943951023931953,0.7916666666666667,2.1936229122068998
Main,58,0,1,Non-designer,False,d_BC,d_AD,False,Probably same,0.65,800.0,4247.75,8.324211553521817,2022-06-04 00:54:31,1.8754889808102944,0.707070707070707,1.9977956465010387
Main,58,1,1,Non-designer,False,r_AD,r_AD,True,Sure same,0.7916666666666666,383.3,3675.3333333333335,8.193969728372004,2022-06-04 00:54:31,2.1936229122068998,0.845679012345679,2.3341632802687364
Main,59,0,1,Graphic designer,True,d_AD,d_BC,False,Probably same,0.9,800.0,4912.75,8.454185243361696,2022-06-04 00:54:24,2.498091544796509,0.9747474747474747,2.822418727791671
Main,59,1,1,Graphic designer,True,c_BC,c_AD,False,Probably same,0.6944444444444444,188.9,3712.9305555555557,8.19894192717487,2022-06-04 00:54:24,1.9702215666754914,0.7546296296296297,2.1051201848870167
Main,60,0,1,Non-designer,False,d_BC,d_AD,False,Sure same,0.9,800.0,5037.5,8.503740889565847,2022-06-04 00:30:23,2.498091544796509,0.9242424242424243,2.5839120238503943
Main,60,1,1,Non-designer,False,c_BC,c_AD,False,Probably different,0.7083333333333334,188.9,4140.111111111111,8.3063105789943,2022-06-04 00:30:23,2.0005717580994244,0.763888888888889,2.126778479315439
Main,61,0,1,Other designer,True,d_BC,d_AD,False,Probably same,0.85,800.0,3990.05,8.237587880447851,2022-06-04 00:19:24,2.34619382340565,0.9696969696969697,2.791654562258416
Main,61,1,1,Other designer,True,t_AD,t_BC,False,Sure same,0.8194444444444444,227.8,3226.8888888888887,8.065177241462012,2022-06-04 00:19:24,2.263849408374869,0.8333333333333333,2.3005239830218627
Main,62,0,1,Non-designer,False,d_BC,d_AD,False,Probably same,0.7,800.0,4639.25,8.404265694494057,2022-06-03 23:37:56,1.9823131728623846,0.6616161616161615,1.8999395085761193
Main,62,1,1,Non-designer,False,b_AD,b_AD,True,Probably same,0.8055555555555556,344.4,3984.097222222222,8.257624500240961,2022-06-03 23:37:56,2.2282598831765403,0.8950617283950617,2.4818067129369057
Main,63,0,1,Non-designer,False,d_BC,d_AD,False,Sure different,0.85,800.0,4774.25,8.415588097002153,2022-06-03 23:32:47,2.34619382340565,0.8939393939393939,2.478153219352368
Main,63,1,1,Non-designer,False,c_AD,c_AD,True,Probably same,0.6944444444444444,266.7,3947.4166666666665,8.264759475708725,2022-06-03 23:32:47,1.9702215666754914,0.7847222222222222,2.176626189857009
Main,64,0,1,Non-designer,False,d_BC,d_AD,False,Probably different,0.75,800.0,4571.65,8.353412306469513,2022-06-03 23:19:33,2.0943951023931953,0.9747474747474747,2.822418727791671
Main,64,1,1,Non-designer,False,b_AB,b_AD,True,Probably same,0.7361111111111112,344.4,3265.777777777778,8.071400485045235,2022-06-03 23:19:33,2.0626064213603414,0.7962962962962963,2.2050699749173925
Main,65,0,1,Non-designer,False,d_BC,d_AD,False,Sure different,0.8,800.0,4222.2,8.321780815710285,2022-06-03 23:06:14,2.214297435588181,0.8888888888888888,2.4619188346815495
Main,65,1,1,Non-designer,False,a_AA,a_AA,True,Sure same,0.7222222222222222,305.6,3412.625,8.124751816817742,2022-06-03 23:06:14,2.031350318476219,0.7222222222222223,2.031350318476219
Main,66,0,1,Non-designer,False,d_AD,d_BC,False,Probably same,0.85,800.0,4459.5,8.36496460740711,2022-06-03 22:56:58,2.34619382340565,0.9393939393939393,2.6441125536712304
Main,66,1,1,Non-designer,False,n_AD,n_AD,True,Probably same,0.75,227.8,3515.5555555555557,8.153548142663864,2022-06-03 22:56:58,2.0943951023931953,0.7685185185185186,2.1377170366297626
Main,67,0,1,Non-designer,False,d_AD,d_BC,False,Sure different,0.55,800.0,4506.7,8.361653983619744,2022-06-03 22:52:51,1.6709637479564565,0.7070707070707071,1.9977956465010391
Main,67,1,1,Non-designer,False,e_AA,e_DD,False,Probably same,0.6944444444444444,461.1,3312.5833333333335,8.095985169101052,2022-06-03 22:52:51,1.9702215666754914,0.7337962962962963,2.057361652989929
Main,68,0,1,Non-designer,False,d_BC,d_AD,False,Probably different,0.7,800.0,4680.9,8.399896923770271,2022-06-03 22:45:06,1.9823131728623846,0.702020202020202,1.9867258785356536
Main,68,1,1,Non-designer,False,t_AD,t_AB,True,Probably same,0.8333333333333334,344.4,3644.6805555555557,8.18319517482025,2022-06-03 22:45:06,2.300523983021863,0.8522376543209876,2.3524799165093775
Main,69,0,1,Non-designer,False,d_BC,d_AD,False,Sure same,0.7,800.0,4399.15,8.305255673313672,2022-06-03 22:28:43,1.9823131728623846,0.6919191919191919,1.9647458431152662
Main,69,1,1,Non-designer,False,c_BD,c_AD,False,Sure different,0.75,344.4,3787.25,8.224576715469972,2022-06-03 22:28:43,2.0943951023931953,0.8229166666666667,2.2729106024000627
Main,70,0,1,Non-designer,False,d_BC,d_AD,False,Probably different,0.9,800.0,3848.65,8.231335566808976,2022-06-03 22:22:59,2.498091544796509,0.9292929292929293,2.6033012084423457
Main,70,1,1,Non-designer,False,e_AD,e_AB,True,Probably same,0.75,227.8,3043.7361111111113,8.01059178983297,2022-06-03 22:22:59,2.0943951023931953,0.8055555555555556,2.2282598831765403
Main,71,0,1,Letter designer,True,d_AD,d_BC,False,Sure different,1.0,800.0,3922.3,8.25527011774673,2022-06-03 22:19:31,3.141592653589793,1.0,3.141592653589793
Main,71,1,1,Letter designer,True,z_BC,z_AD,False,Probably same,0.8611111111111112,150.0,3723.6388888888887,8.18630477123257,2022-06-03 22:19:31,2.3778061571919618,0.8865740740740742,2.454586338891982
Main,72,0,1,Non-designer,False,d_AD,d_BC,False,Probably same,0.6,800.0,5919.6,8.54153339472323,2022-06-03 22:08:42,1.7721542475852274,0.6767676767676767,1.9321441683458676
Main,72,1,1,Non-designer,False,r_AA,r_DD,False,Probably same,0.6944444444444444,383.3,3624.3055555555557,8.182993467922497,2022-06-03 22:08:42,1.9702215666754914,0.6944444444444444,1.9702215666754914
Main,73,0,1,Non-designer,False,d_AD,d_BC,False,Probably same,0.75,800.0,6149.55,8.611229350210003,2022-06-03 22:02:46,2.0943951023931953,0.8181818181818181,2.2605713275803963
Main,73,1,1,Non-designer,False,t_AD,t_AD,True,Probably same,0.75,266.7,3920.1805555555557,8.254013635577069,2022-06-03 22:02:46,2.0943951023931953,0.8140432098765433,2.249887929535011
Main,74,0,1,Non-designer,False,d_AD,d_BC,False,Probably same,0.45,800.0,6798.85,8.764054093243704,2022-06-03 20:48:36,1.4706289056333368,0.4747474747474748,1.5202697805621577
Main,74,1,1,Non-designer,False,r_AB,r_AD,True,Sure same,0.75,500.0,4468.597222222223,8.370543897664978,2022-06-03 20:48:36,2.0943951023931953,0.7916666666666666,2.1936229122068998
Main,75,0,1,Non-designer,False,d_AD,d_BC,False,Sure same,0.8,800.0,5239.75,8.500274547004432,2022-06-03 20:41:20,2.214297435588181,0.797979797979798,2.209256438536741
Main,75,1,1,Non-designer,False,z_DD,z_AA,False,Sure different,0.7777777777777778,266.7,3693.625,8.194493024369619,2022-06-03 20:41:20,2.1598272970111707,0.7746913580246914,2.152421627921105
Main,76,0,1,Non-designer,False,d_AD,d_BC,False,Sure same,0.5,800.0,4344.6,8.334981117361854,2022-06-03 20:11:18,1.5707963267948968,0.4292929292929293,1.4289065602589204
Main,76,1,1,Non-designer,False,q_AB,q_AD,True,Sure same,0.5833333333333334,461.1,3630.0833333333335,8.18823503344531,2022-06-03 20:11:18,1.738244406014586,0.6435185185185184,1.8619286016716308
Main,77,0,1,Non-designer,False,d_AD,d_BC,False,Probably different,0.8,800.0,4223.55,8.266382952589796,2022-06-03 20:03:01,2.214297435588181,0.8636363636363636,2.385136268921422
Main,77,1,1,Non-designer,False,a_AD,a_BD,False,Probably same,0.7222222222222222,305.6,3554.3194444444443,8.15518995664138,2022-06-03 20:03:01,2.031350318476219,0.7584876543209877,2.1141099750345727
Main,78,0,1,Non-designer,False,d_AD,d_BC,False,Sure same,0.55,800.0,5474.45,8.514194370390701,2022-06-03 20:02:23,1.6709637479564565,0.6818181818181819,1.9429648607552226
Main,78,1,1,Non-designer,False,a_AD,a_AB,True,Sure same,0.7777777777777778,422.2,4027.1944444444443,8.286345110963653,2022-06-03 20:02:23,2.1598272970111707,0.8097993827160493,2.239027747021415
Main,79,0,1,Non-designer,False,d_BC,d_AD,False,Sure same,0.85,800.0,4259.95,8.327246866084094,2022-06-03 19:59:53,2.34619382340565,0.8484848484848485,2.3419593256893587
Main,79,1,1,Non-designer,False,j_AA,j_AA,True,Probably different,0.7222222222222222,188.9,3710.347222222222,8.194387587730299,2022-06-03 19:59:53,2.031350318476219,0.7542438271604938,2.1042238466661107
Main,80,0,1,Non-designer,False,d_BC,d_AD,False,Probably same,0.6,800.0,4036.2,8.253705794713749,2022-06-03 19:56:41,1.7721542475852274,0.6565656565656566,1.8892847011119729
Main,80,1,1,Non-designer,False,a_AA,a_AA,True,Probably same,0.75,422.2,3667.9166666666665,8.192964183973958,2022-06-03 19:56:41,2.0943951023931953,0.7646604938271605,2.128596367982144
Main,81,0,1,Non-designer,False,d_BC,d_AD,False,Sure same,0.65,800.0,5779.9,8.487546537027391,2022-06-03 19:52:27,1.8754889808102944,0.7525252525252525,2.100236807680506
Main,81,1,1,Non-designer,False,b_AB,b_AD,True,Probably different,0.6527777777777778,383.3,3981.375,8.246933069488858,2022-06-03 19:52:27,1.8813181614606647,0.693287037037037,1.967710300525086
Main,82,0,1,Non-designer,False,d_AD,d_BC,False,Sure same,0.7,800.0,3964.3,8.241192848149941,2022-06-03 19:50:35,1.9823131728623846,0.7323232323232322,2.054031645084221
Main,82,1,1,Non-designer,False,a_AD,a_BC,False,Sure same,0.7083333333333334,344.4,3386.847222222222,8.114911558672267,2022-06-03 19:50:35,2.0005717580994244,0.7708333333333333,2.1432148988877167
Main,83,0,1,Non-designer,False,d_BC,d_AD,False,Probably different,0.6,800.0,5536.05,8.554869647798059,2022-06-03 19:50:15,1.7721542475852274,0.5555555555555555,1.6821373411358602
Main,83,1,1,Non-designer,False,a_AD,a_BD,False,Probably same,0.7361111111111112,461.1,4185.722222222223,8.314426461108313,2022-06-03 19:50:15,2.0626064213603414,0.7569444444444444,2.110508255285102
Main,84,0,1,Non-designer,False,d_BC,d_AD,False,Probably same,0.6,800.0,5442.95,8.527200900759764,2022-06-03 19:49:25,1.7721542475852274,0.7171717171717171,2.0201055632366556
Main,84,1,1,Non-designer,False,b_AD,b_AD,True,Probably same,0.7222222222222222,422.2,4123.013888888889,8.313631210879185,2022-06-03 19:49:25,2.031350318476219,0.75,2.0943951023931953
Main,85,0,1,Graphic designer,True,d_AD,d_BC,False,Probably different,0.9,800.0,7932.0,8.801823066638345,2022-06-03 19:46:25,2.498091544796509,0.904040404040404,2.5116831289359305
Main,85,1,1,Graphic designer,True,t_AA,t_DD,False,Probably different,0.7777777777777778,227.8,6208.736111111111,8.505659155478533,2022-06-03 19:46:25,2.1598272970111707,0.8171296296296297,2.2578463516448246
Main,86,0,1,Non-designer,False,d_AD,d_BC,False,Sure same,0.65,800.0,4732.45,8.431297440026942,2022-06-03 19:44:32,1.8754889808102944,0.7171717171717171,2.0201055632366556
Main,86,1,1,Non-designer,False,n_AD,n_AB,True,Probably same,0.75,383.3,3687.6944444444443,8.198690012851639,2022-06-03 19:44:32,2.0943951023931953,0.79320987654321,2.1974280405052538
Main,87,0,1,Non-designer,False,d_BC,d_AD,False,Sure same,0.65,800.0,5932.2,8.505416466783407,2022-06-03 19:38:34,1.8754889808102944,0.702020202020202,1.9867258785356536
Main,87,1,1,Non-designer,False,c_AD,c_BD,False,Sure different,0.5138888888888888,383.3,4157.027777777777,8.289352416436724,2022-06-03 19:38:34,1.5985776780586918,0.49961419753086417,1.5700247217800594
Main,88,0,1,Non-designer,False,d_AD,d_BC,False,Sure different,0.85,800.0,4469.1,8.355205004900212,2022-06-03 19:34:44,2.34619382340565,0.8737373737373737,2.415048801736512
Main,88,1,1,Non-designer,False,j_DD,j_AA,False,Sure different,0.7638888888888888,266.7,3403.972222222222,8.122744387634762,2022-06-03 19:34:44,2.1267784793154387,0.7781635802469136,2.1607555754418204
Main,89,0,1,Non-designer,False,d_BC,d_AD,False,Sure different,0.8,800.0,3597.4,8.1733343773851,2022-06-03 19:27:35,2.214297435588181,0.7979797979797979,2.20925643853674
Main,89,1,1,Non-designer,False,z_AD,z_AB,True,Sure different,0.7361111111111112,305.6,3008.402777777778,7.99866494066049,2022-06-03 19:27:35,2.0626064213603414,0.7361111111111112,2.0626064213603414
Main,90,0,1,Typographer,True,d_BC,d_AD,False,Probably same,0.6,800.0,4594.8,8.370177326695428,2022-06-03 19:24:54,1.7721542475852274,0.7474747474747474,2.0885730336456545
Main,90,1,1,Typographer,True,p_AA,p_DD,False,Probably different,0.8611111111111112,422.2,3622.3055555555557,8.161365568641505,2022-06-03 19:24:54,2.3778061571919618,0.84375,2.3288370922211326
Main,91,0,1,Non-designer,False,d_AD,d_BC,False,Probably different,0.85,800.0,4250.8,8.31105603138706,2022-06-03 19:19:51,2.34619382340565,0.8939393939393939,2.478153219352368
Main,91,1,1,Non-designer,False,z_AB,z_AD,True,Sure same,0.75,227.8,3228.8194444444443,8.06184963009943,2022-06-03 19:19:51,2.0943951023931953,0.7916666666666666,2.1936229122068998
Main,92,0,1,Non-designer,False,d_BC,d_AD,False,Sure different,0.85,800.0,4287.1,8.317338714147231,2022-06-03 19:16:08,2.34619382340565,0.8838383838383836,2.4460042561040973
Main,92,1,1,Non-designer,False,j_BC,j_AD,False,Probably different,0.7361111111111112,266.7,3586.3611111111113,8.172570826068997,2022-06-03 19:16:08,2.0626064213603414,0.7916666666666667,2.1936229122068998
Main,93,0,1,Non-designer,False,d_AD,d_BC,False,Probably same,0.8,800.0,4063.2,8.287775137353632,2022-06-03 19:15:21,2.214297435588181,0.9090909090909091,2.5290379152504547
Main,93,1,1,Non-designer,False,z_BD,z_AD,False,Sure different,0.6944444444444444,266.7,3547.3333333333335,8.154708433925235,2022-06-03 19:15:21,1.9702215666754914,0.7808641975308642,2.1672697937730945
Main,94,0,1,Letter designer,True,d_BC,d_AD,False,Sure different,1.0,800.0,4666.5,8.379248022983987,2022-06-03 18:47:21,3.141592653589793,1.0,3.141592653589793
Main,94,1,1,Letter designer,True,r_AD,r_BC,False,Sure same,0.8055555555555556,150.0,3015.25,7.986438773505335,2022-06-03 18:47:21,2.2282598831765403,0.8479938271604939,2.3405907725290134
Main,95,0,1,Non-designer,False,d_BC,d_AD,False,Sure different,1.0,800.0,4338.65,8.325436514686283,2022-06-03 18:16:28,3.141592653589793,1.0,3.141592653589793
Main,95,1,1,Non-designer,False,r_BD,r_AD,False,Sure same,0.7777777777777778,150.0,3207.2638888888887,8.061227188370763,2022-06-03 18:16:28,2.1598272970111707,0.7777777777777778,2.1598272970111707
Main,96,0,1,Other designer,True,d_AD,d_BC,False,Sure different,0.6,800.0,8264.8,8.92061471658495,2022-06-03 18:10:23,1.7721542475852274,0.6818181818181819,1.9429648607552226
Main,96,1,1,Other designer,True,h_AD,h_BC,False,Probably different,0.8472222222222222,461.1,4189.583333333333,8.328152763474057,2022-06-03 18:10:23,2.3384438482029277,0.8634259259259259,2.3845232585524703
Main,97,0,1,Non-designer,False,d_AD,d_BC,False,Probably different,0.9,800.0,4350.9,8.34762340125306,2022-06-03 17:57:57,2.498091544796509,0.9141414141414141,2.5468323523175673
Main,97,1,1,Non-designer,False,p_AA,p_AA,True,Probably same,0.6527777777777778,227.8,3516.347222222222,8.153435628751497,2022-06-03 17:57:57,1.8813181614606647,0.7179783950617284,2.021897468561809
Main,98,0,1,Other designer,True,d_AD,d_BC,False,Probably same,0.6,800.0,3899.95,8.242697190535402,2022-06-03 17:23:51,1.7721542475852274,0.7272727272727273,2.0426581640745387
Main,98,1,1,Other designer,True,n_AB,n_AD,True,Probably different,0.6111111111111112,383.3,4194.472222222223,8.112352078538756,2022-06-03 17:23:51,1.7948894190962676,0.6296296296296297,1.8330514856707534
Main,99,0,1,Graphic designer,True,d_BC,d_AD,False,Probably same,0.9,800.0,4131.3,8.272095232946278,2022-06-03 16:59:49,2.498091544796509,0.9191919191919191,2.565107755655994
Main,99,1,1,Graphic designer,True,c_AA,c_AA,True,Sure same,0.7361111111111112,188.9,2861.527777777778,7.943790851995484,2022-06-03 16:59:49,2.0626064213603414,0.8487654320987654,2.342742173828604
Main,100,0,1,Graphic designer,True,d_AD,d_BC,False,Probably same,0.75,800.0,5420.95,8.543398051711563,2022-06-03 16:58:50,2.0943951023931953,0.898989898989899,2.494732059198814
Main,100,1,1,Graphic designer,True,n_DD,n_AA,False,Probably same,0.7222222222222222,305.6,3476.2638888888887,8.135545995159841,2022-06-03 16:58:50,2.031350318476219,0.7762345679012346,2.1561199185867994
Main,101,0,1,Letter designer,True,d_BC,d_AD,False,Probably different,0.85,800.0,4918.5,8.429023653692713,2022-06-03 16:44:28,2.34619382340565,0.9343434343434343,2.6233415999334895
Main,101,1,1,Letter designer,True,e_AD,e_AD,True,Sure same,0.7638888888888888,266.7,4203.708333333333,8.323207048647271,2022-06-03 16:44:28,2.1267784793154387,0.7989969135802469,2.21179207073649
Main,102,0,1,Non-designer,False,d_BC,d_AD,False,Sure different,0.5,800.0,8176.65,8.756210812234261,2022-06-03 16:43:46,1.5707963267948968,0.43939393939393934,1.449285410105216
Main,102,1,1,Non-designer,False,n_AD,n_AD,True,Probably same,0.4722222222222222,500.0,4068.1388888888887,8.24709254111051,2022-06-03 16:43:46,1.515212153513979,0.4691358024691358,1.5090286627700722
Main,103,0,1,Other designer,True,d_AD,d_BC,False,Sure same,0.85,800.0,4335.4,8.356164413806585,2022-06-03 16:22:06,2.34619382340565,0.8939393939393939,2.478153219352368
Main,103,1,1,Other designer,True,z_BC,z_AD,False,Sure different,0.8055555555555556,227.8,3600.0138888888887,8.177082208634344,2022-06-03 16:22:06,2.2282598831765403,0.873070987654321,2.4130447498982934
Main,104,0,1,Non-designer,False,d_AD,d_BC,False,Sure different,0.85,800.0,3584.95,8.161818086695494,2022-06-03 16:17:00,2.34619382340565,0.8939393939393939,2.478153219352368
Main,104,1,1,Non-designer,False,z_AD,z_BD,False,Sure different,0.8194444444444444,266.7,2939.8194444444443,7.979426544955193,2022-06-03 16:17:00,2.263849408374869,0.8483796296296295,2.341665911184322
Main,105,0,1,Non-designer,False,d_BC,d_AD,False,Sure different,0.5,800.0,6993.0,8.667636596128492,2022-06-03 15:55:43,1.5707963267948968,0.3838383838383838,1.33633073533031
Main,105,1,1,Non-designer,False,n_AA,n_AA,True,Sure different,0.6111111111111112,500.0,3933.0138888888887,8.249546577302887,2022-06-03 15:55:43,1.7948894190962676,0.6304012345679012,1.8346496728999648
Main,106,0,1,Non-designer,False,d_AD,d_BC,False,Sure different,0.55,800.0,3783.85,8.125261966705645,2022-06-03 15:38:00,1.6709637479564565,0.5,1.5707963267948968
Main,106,1,1,Non-designer,False,h_AD,h_BC,False,Sure different,0.875,500.0,4234.541666666667,8.315842701803323,2022-06-03 15:38:00,2.4188584057763776,0.8657407407407407,2.391288455011845
Main,107,0,1,Letter designer,True,d_BC,d_AD,False,Sure different,1.0,800.0,5316.6,8.450351715179348,2022-06-03 15:37:56,3.141592653589793,1.0,3.141592653589793
Main,107,1,1,Letter designer,True,j_AD,j_AD,True,Sure same,0.8194444444444444,150.0,3272.277777777778,8.073844051064974,2022-06-03 15:37:56,2.263849408374869,0.8395061728395061,2.3172127773803832
Main,108,0,1,Non-designer,False,d_AD,d_BC,False,Probably same,0.45,800.0,4038.55,8.277530529884555,2022-06-03 15:29:41,1.4706289056333368,0.4545454545454546,1.4797615487574818
Main,108,1,1,Non-designer,False,r_BC,r_AD,False,Probably different,0.8194444444444444,538.9,3390.625,8.117678645748041,2022-06-03 15:29:41,2.263849408374869,0.8777006172839505,2.42706255680704
Main,109,0,1,Non-designer,False,d_BC,d_AD,False,Probably different,0.6,800.0,4857.4,8.437345091877496,2022-06-03 15:29:04,1.7721542475852274,0.7525252525252525,2.100236807680506
Main,109,1,1,Non-designer,False,r_AD,r_AD,True,Sure same,0.6805555555555556,422.2,3848.9444444444443,8.241711612581604,2022-06-03 15:29:04,1.9402554566946664,0.7503858024691358,2.095286304426436
Main,110,0,1,Non-designer,False,d_BC,d_AD,False,Sure same,0.8,800.0,3834.9,8.210269119137008,2022-06-03 15:25:11,2.214297435588181,0.8484848484848484,2.3419593256893587
Main,110,1,1,Non-designer,False,c_AA,c_DD,False,Sure different,0.875,266.7,3155.722222222222,8.042118765978152,2022-06-03 15:25:11,2.4188584057763776,0.9120370370370371,2.539362058674575
Main,111,0,1,Letter designer,True,d_AD,d_BC,False,Sure different,1.0,800.0,4167.35,8.273579046953072,2022-06-03 15:17:47,3.141592653589793,1.0,3.141592653589793
Main,111,1,1,Letter designer,True,a_AA,a_AA,True,Probably same,0.875,150.0,3030.6388888888887,7.977505485822296,2022-06-03 15:17:47,2.4188584057763776,0.875,2.4188584057763776
Main,112,0,1,Other designer,True,d_BC,d_AD,False,Sure different,0.6,800.0,4289.5,8.301787823601586,2022-06-03 15:13:08,1.7721542475852274,0.6161616161616161,1.8052619182594831
Main,112,1,1,Other designer,True,a_AD,a_AB,True,Sure different,0.6527777777777778,461.1,3558.5833333333335,8.170241647050585,2022-06-03 15:13:08,1.8813181614606647,0.6512345679012346,1.8780783956482967
Main,113,0,1,Non-designer,False,d_AD,d_BC,False,Probably same,0.8,800.0,4118.3,8.255841175977702,2022-06-03 15:12:06,2.214297435588181,0.7929292929292928,2.19673542132329
Main,113,1,1,Non-designer,False,e_BD,e_AD,False,Probably same,0.7916666666666666,266.7,3365.6666666666665,8.107512515031491,2022-06-03 15:12:06,2.1936229122068998,0.837962962962963,2.3130167026903994
Main,114,0,1,Non-designer,False,d_BC,d_AD,False,Probably same,0.65,800.0,6438.4,8.573380885410902,2022-06-03 15:10:38,1.8754889808102944,0.702020202020202,1.9867258785356536
Main,114,1,1,Non-designer,False,r_AA,r_AA,True,Probably same,0.6666666666666666,383.3,4239.180555555556,8.319118061507849,2022-06-03 15:10:38,1.9106332362490186,0.7125771604938271,2.0099287032343223
Main,115,0,1,Non-designer,False,d_AD,d_BC,False,Sure same,0.75,800.0,3547.0,8.14779382743153,2022-06-03 15:07:54,2.0943951023931953,0.7626262626262625,2.1238081708380796
Main,115,1,1,Non-designer,False,n_AD,n_BD,False,Sure different,0.8333333333333334,266.7,2778.5416666666665,7.918729182694065,2022-06-03 15:07:54,2.300523983021863,0.8703703703703705,2.4049686515706648
Main,116,0,1,Non-designer,False,d_BC,d_AD,False,Probably same,0.85,800.0,5316.65,8.477762403480659,2022-06-03 14:43:50,2.34619382340565,0.8636363636363635,2.3851362689214217
Main,116,1,1,Non-designer,False,r_AA,r_AA,True,Probably same,0.6944444444444444,227.8,3977.8055555555557,8.251829734575868,2022-06-03 14:43:50,1.9702215666754914,0.742283950617284,2.076665460620335
Main,117,0,1,Non-designer,False,d_BC,d_AD,False,Probably different,0.95,800.0,5011.4,8.478573465590314,2022-06-03 14:37:29,2.6905658417935303,0.9494949494949494,2.688254026581661
Main,117,1,1,Non-designer,False,j_AA,j_AA,True,Sure same,0.75,188.9,3678.5555555555557,8.194712241274622,2022-06-03 14:37:29,2.0943951023931953,0.7600308641975309,2.11771954650441
Main,118,0,1,Non-designer,False,d_BC,d_AD,False,Probably same,0.8,800.0,4673.2,8.393281844584791,2022-06-03 14:32:30,2.214297435588181,0.8686868686868686,2.3999704234878205
Main,118,1,1,Non-designer,False,p_BD,p_AD,False,Probably different,0.7638888888888888,266.7,3875.7361111111113,8.231304205998802,2022-06-03 14:32:30,2.1267784793154387,0.7503858024691359,2.0952863044264363
Main,119,0,1,Non-designer,False,d_AD,d_BC,False,Probably same,0.85,800.0,3879.3,8.214516782395417,2022-06-03 14:28:45,2.34619382340565,0.9292929292929293,2.6033012084423457
Main,119,1,1,Non-designer,False,h_AA,h_DD,False,Sure different,0.7222222222222222,227.8,3322.5416666666665,8.09300320487123,2022-06-03 14:28:45,2.031350318476219,0.7361111111111112,2.0626064213603414
Main,120,0,1,Non-designer,False,d_AD,d_BC,False,Probably different,0.9,800.0,3682.2,8.149293199139972,2022-06-03 14:18:10,2.498091544796509,1.0,3.141592653589793
Main,120,1,1,Non-designer,False,z_BD,z_AD,False,Sure same,0.7083333333333334,227.8,2769.5416666666665,7.913032458576557,2022-06-03 14:18:10,2.0005717580994244,0.7233796296296295,2.033936036904764
Main,121,0,1,Non-designer,False,d_BC,d_AD,False,Sure different,0.75,800.0,12226.3,8.816958876423433,2022-06-03 14:15:23,2.0943951023931953,0.7929292929292928,2.19673542132329
Main,121,1,1,Non-designer,False,r_AB,r_AD,True,Probably same,0.7638888888888888,305.6,5944.861111111111,8.343952734593625,2022-06-03 14:15:23,2.1267784793154387,0.824074074074074,2.2759464373254343
Main,122,0,1,Non-designer,False,d_BC,d_AD,False,Probably different,0.95,800.0,5345.4,8.494473890305828,2022-06-03 14:10:15,2.6905658417935303,0.9242424242424243,2.5839120238503943
Main,122,1,1,Non-designer,False,z_BD,z_AD,False,Sure different,0.7777777777777778,188.9,3970.847222222222,8.245166965328524,2022-06-03 14:10:15,2.1598272970111707,0.8040123456790125,2.2243664892978563
Main,123,0,1,Other designer,True,d_BC,d_AD,False,Probably different,0.6,800.0,4937.65,8.414580206558655,2022-06-03 13:58:25,1.7721542475852274,0.6616161616161615,1.8999395085761193
Main,123,1,1,Other designer,True,e_AD,e_AD,True,Probably same,0.7361111111111112,461.1,3775.347222222222,8.209598106400612,2022-06-03 13:58:25,2.0626064213603414,0.7445987654320987,2.081965761853219
Main,124,0,1,Non-designer,False,d_AD,d_BC,False,Sure different,0.55,800.0,4480.8,8.305455782653784,2022-06-03 13:56:50,1.6709637479564565,0.5858585858585859,1.7433687947562304
Main,124,1,1,Non-designer,False,n_AB,n_AD,True,Sure different,0.5138888888888888,500.0,3544.4166666666665,8.15326090411913,2022-06-03 13:56:50,1.5985776780586918,0.5532407407407407,1.6774800618661507
Main,125,0,1,Non-designer,False,d_BC,d_AD,False,Probably different,0.65,800.0,4186.4,8.267055637406477,2022-06-03 13:52:58,1.8754889808102944,0.7222222222222221,2.0313503184762185
Main,125,1,1,Non-designer,False,p_AB,p_AD,True,Sure same,0.7777777777777778,383.3,3009.625,8.002480439039152,2022-06-03 13:52:58,2.1598272970111707,0.7777777777777778,2.1598272970111707
Main,126,0,1,Graphic designer,True,d_BC,d_AD,False,Sure different,0.7,800.0,3658.4,8.185886693621885,2022-06-03 13:50:45,1.9823131728623846,0.7777777777777777,2.15982729701117
Main,126,1,1,Graphic designer,True,j_AD,j_AB,True,Probably same,0.7361111111111112,383.3,3426.347222222222,8.122078191780108,2022-06-03 13:50:45,2.0626064213603414,0.8020833333333333,2.2195160051354748
Main,127,0,1,Other designer,True,d_BC,d_AD,False,Probably different,0.6,800.0,3978.55,8.25616620807948,2022-06-03 13:49:08,1.7721542475852274,0.6767676767676768,1.9321441683458676
Main,127,1,1,Other designer,True,b_AD,b_AB,True,Probably same,0.7083333333333334,461.1,3454.527777777778,8.138638514809868,2022-06-03 13:49:08,2.0005717580994244,0.7199074074074074,2.0261887905127383
Main,128,0,1,Non-designer,False,d_BC,d_AD,False,Probably same,0.9,800.0,4037.25,8.272344182903993,2022-06-03 13:47:03,2.498091544796509,0.9191919191919191,2.565107755655994
Main,128,1,1,Non-designer,False,h_AA,h_AA,True,Probably same,0.8194444444444444,188.9,3322.3611111111113,8.08802377566191,2022-06-03 13:47:03,2.263849408374869,0.8560956790123455,2.363411271210703
Main,129,0,1,Non-designer,False,d_AD,d_BC,False,Sure same,0.9,800.0,4454.85,8.362839217709194,2022-06-03 13:46:55,2.498091544796509,0.9545454545454546,2.711892987438369
Main,129,1,1,Non-designer,False,n_AD,n_BD,False,Probably same,0.75,188.9,3632.847222222222,8.164773837384537,2022-06-03 13:46:55,2.0943951023931953,0.8148148148148149,2.2518727149138993
Main,130,0,1,Non-designer,False,d_AD,d_BC,False,Probably different,0.85,800.0,4990.95,8.386623169171452,2022-06-03 13:24:31,2.34619382340565,0.8787878787878787,2.4303874876287264
Main,130,1,1,Non-designer,False,p_AB,p_AD,True,Probably same,0.8194444444444444,266.7,3863.4166666666665,8.23998117390825,2022-06-03 13:24:31,2.263849408374869,0.8198302469135803,2.264852824048806
Main,131,0,1,Non-designer,False,d_BC,d_AD,False,Probably same,0.65,800.0,4036.5,8.246801519660247,2022-06-03 13:07:01,1.8754889808102944,0.7626262626262625,2.1238081708380796
Main,131,1,1,Non-designer,False,r_AD,r_AD,True,Sure same,0.8611111111111112,383.3,3218.8611111111113,8.067986766971467,2022-06-03 13:07:01,2.3778061571919618,0.8904320987654322,2.4668443287386626
Main,132,0,1,Non-designer,False,d_BC,d_AD,False,Probably same,0.7,800.0,5152.3,8.480424042620534,2022-06-03 12:52:07,1.9823131728623846,0.7929292929292929,2.19673542132329
Main,132,1,1,Non-designer,False,e_AD,e_BD,False,Sure same,0.7916666666666666,305.6,3826.1805555555557,8.221287725431553,2022-06-03 12:52:07,2.1936229122068998,0.8364197530864198,2.308836714966443
Main,133,0,1,Letter designer,True,d_BC,d_AD,False,Probably same,0.85,800.0,4232.3,8.19960511228127,2022-06-03 12:44:24,2.34619382340565,0.8939393939393938,2.478153219352368
Main,133,1,1,Letter designer,True,n_AB,n_AD,True,Sure same,0.9305555555555556,227.8,2841.9166666666665,7.936570795753768,2022-06-03 12:44:24,2.6082474046791386,0.9521604938271605,2.7005826177214316
Main,134,0,1,Graphic designer,True,d_AD,d_BC,False,Probably different,0.7,800.0,4064.4,8.274679325748115,2022-06-03 11:51:52,1.9823131728623846,0.6969696969696969,1.9757099762829764
Main,134,1,1,Graphic designer,True,c_AA,c_AA,True,Sure same,0.7361111111111112,383.3,3975.0138888888887,8.257933947499623,2022-06-03 11:51:52,2.0626064213603414,0.8310185185185185,2.294329802056578
Main,135,0,1,Non-designer,False,d_BC,d_AD,False,Probably different,0.85,800.0,5024.7,8.486483592684655,2022-06-03 11:51:08,2.34619382340565,0.9595959595959596,2.7368199162761746
Main,135,1,1,Non-designer,False,c_AD,c_AD,True,Sure same,0.6805555555555556,266.7,4338.486111111111,8.337706360689028,2022-06-03 11:51:08,1.9402554566946664,0.7438271604938272,2.0801972530440573
Main,136,0,1,Non-designer,False,d_AD,d_BC,False,Probably same,0.6,800.0,7255.6,8.650332599332325,2022-06-03 10:37:52,1.7721542475852274,0.7727272727272727,2.1477276720313534
Main,136,1,1,Non-designer,False,e_AD,e_AB,True,Sure same,0.6527777777777778,383.3,5132.069444444444,8.383084226868224,2022-06-03 10:37:52,1.8813181614606647,0.7040895061728395,1.991254772990433
Main,137,0,1,Other designer,True,d_BC,d_AD,False,Probably different,0.75,800.0,4503.0,8.340578158620255,2022-06-03 10:27:15,2.0943951023931953,0.7929292929292929,2.19673542132329
Main,137,1,1,Other designer,True,e_AA,e_AA,True,Sure same,0.8194444444444444,344.4,3579.75,8.165414526572484,2022-06-03 10:27:15,2.263849408374869,0.8433641975308643,2.327775079044766
Main,138,0,1,Graphic designer,True,d_BC,d_AD,False,Probably different,0.95,800.0,4307.85,8.305267098077012,2022-06-03 10:25:31,2.6905658417935303,0.9393939393939393,2.6441125536712304
Main,138,1,1,Graphic designer,True,h_AA,h_DD,False,Sure different,0.7777777777777778,188.9,3196.3194444444443,8.05479216156022,2022-06-03 10:25:31,2.1598272970111707,0.8225308641975309,2.271900389801814
Main,139,0,1,Non-designer,False,d_AD,d_BC,False,Probably same,0.6,800.0,5027.65,8.321119643722794,2022-06-03 09:51:17,1.7721542475852274,0.7828282828282828,2.172025546861176
Main,139,1,1,Non-designer,False,j_DD,j_AA,False,Sure different,0.6388888888888888,383.3,2969.5,7.9838622622577695,2022-06-03 09:51:17,1.8522764000257417,0.6589506172839505,1.8943113917613026
Main,140,0,1,Non-designer,False,d_BC,d_AD,False,Probably same,0.85,800.0,3776.4,8.157278939758136,2022-06-03 09:44:12,2.34619382340565,0.8939393939393938,2.478153219352368
Main,140,1,1,Non-designer,False,j_AD,j_AD,True,Sure same,0.7916666666666666,227.8,2876.5694444444443,7.9518185450076215,2022-06-03 09:44:12,2.1936229122068998,0.7916666666666667,2.1936229122068998
Main,141,0,1,Other designer,True,d_BC,d_AD,False,Probably same,0.9,800.0,3952.6,8.215031569718901,2022-06-03 07:57:06,2.498091544796509,0.9848484848484849,2.8947837201202202
Main,141,1,1,Other designer,True,z_BC,z_AD,False,Sure different,0.8055555555555556,188.9,2850.8333333333335,7.9371685890210415,2022-06-03 07:57:06,2.2282598831765403,0.8356481481481481,2.3067526735390316
Main,142,0,1,Non-designer,False,d_BC,d_AD,False,Sure same,0.75,800.0,3789.2,8.206194627625775,2022-06-03 07:46:01,2.0943951023931953,0.7878787878787878,2.1843267345407873
Main,142,1,1,Non-designer,False,t_AB,t_AD,True,Probably same,0.75,305.6,3600.4861111111113,8.17432056064586,2022-06-03 07:46:01,2.0943951023931953,0.7885802469135802,2.1860436281578304
Main,143,0,1,Graphic designer,True,d_BC,d_AD,False,Sure different,0.95,800.0,4680.9,8.401812449835168,2022-06-03 07:44:35,2.6905658417935303,0.9898989898989898,2.9402451464886394
Main,143,1,1,Graphic designer,True,a_DD,a_AA,False,Sure different,0.7777777777777778,188.9,3789.972222222222,8.217076663396009,2022-06-03 07:44:35,2.1598272970111707,0.8722993827160493,2.4107298768098895
Main,144,0,1,Non-designer,False,d_AD,d_BC,False,Sure same,0.9,800.0,4098.45,8.287529435524018,2022-06-03 07:43:52,2.498091544796509,0.8737373737373736,2.415048801736512
Main,144,1,1,Non-designer,False,j_AD,j_AD,True,Sure same,0.75,188.9,3477.3194444444443,8.13682667428079,2022-06-03 07:43:52,2.0943951023931953,0.775462962962963,2.154269644624012
Main,145,0,1,Graphic designer,True,d_BC,d_AD,False,Sure same,0.65,800.0,4568.75,8.383134979089697,2022-06-03 07:33:22,1.8754889808102944,0.7222222222222221,2.0313503184762185
Main,145,1,1,Graphic designer,True,b_AD,b_AD,True,Sure same,0.7777777777777778,383.3,3713.0,8.200261025092555,2022-06-03 07:33:22,2.1598272970111707,0.8287037037037038,2.2881693295324013
Main,146,0,1,Letter designer,True,d_BC,d_AD,False,Probably same,0.9,800.0,4505.95,8.312552286119645,2022-06-03 07:33:07,2.498091544796509,0.9595959595959596,2.7368199162761746
Main,146,1,1,Letter designer,True,c_AA,c_DD,False,Sure different,0.8888888888888888,188.9,3321.527777777778,8.069481742047412,2022-06-03 07:33:07,2.4619188346815495,0.9058641975308642,2.5179017875368723
Main,147,0,1,Non-designer,False,d_AD,d_BC,False,Probably same,0.85,800.0,4361.7,8.330437931890732,2022-06-03 07:32:19,2.34619382340565,0.9191919191919192,2.565107755655995
Main,147,1,1,Non-designer,False,b_AD,b_BD,False,Sure different,0.7777777777777778,227.8,3700.597222222222,8.178494804768437,2022-06-03 07:32:19,2.1598272970111707,0.8310185185185185,2.294329802056578
Main,148,0,1,Letter designer,True,d_AD,d_BC,False,Probably same,0.9,800.0,3841.65,8.205624797664473,2022-06-03 07:10:43,2.498091544796509,0.9393939393939393,2.6441125536712304
Main,148,1,1,Letter designer,True,c_DD,c_AA,False,Sure different,0.8055555555555556,188.9,3484.1666666666665,8.124467489257485,2022-06-03 07:10:43,2.2282598831765403,0.8217592592592593,2.269882543706908
Main,149,0,1,Graphic designer,True,d_BC,d_AD,False,Probably same,0.85,800.0,4089.05,8.273023157496828,2022-06-03 06:42:53,2.34619382340565,1.0,3.141592653589793
Main,149,1,1,Graphic designer,True,c_AD,c_AD,True,Sure same,0.8333333333333334,227.8,3142.4166666666665,8.043497575669702,2022-06-03 06:42:53,2.300523983021863,0.8576388888888888,2.3678178364397025
Main,150,0,1,Letter designer,True,d_AD,d_BC,False,Sure different,0.95,800.0,3910.85,8.22644999270346,2022-06-03 06:34:33,2.6905658417935303,0.9444444444444444,2.6657104039293764
Main,150,1,1,Letter designer,True,n_AA,n_AA,True,Probably different,0.875,188.9,3221.7638888888887,8.043717797982898,2022-06-03 06:34:33,2.4188584057763776,0.9456018518518519,2.6707882660364253
Pilot,151,0,1,Letter designer,True,d_AD,d_BC,False,Sure different,0.9,800.0,3625.2,8.176907798741738,2022-06-02 20:59:27,2.498091544796509,0.9090909090909091,2.5290379152504547
Pilot,151,1,1,Letter designer,True,t_AD,t_BD,False,Sure different,0.8611111111111112,227.8,3401.402777777778,8.113180006562228,2022-06-02 20:59:27,2.3778061571919618,0.8773148148148148,2.4258858038743347
Pilot,152,0,1,Letter designer,True,d_BC,d_AD,False,Sure different,0.95,800.0,5458.2,8.44013762383035,2022-06-02 19:53:32,2.6905658417935303,0.9494949494949494,2.688254026581661
Pilot,152,1,1,Letter designer,True,h_AD,h_AD,True,Sure same,0.8055555555555556,188.9,3609.5416666666665,8.171451904131919,2022-06-02 19:53:32,2.2282598831765403,0.9309413580246915,2.609767022980141
Pilot,153,0,1,Non-designer,False,d_AD,d_BC,False,Probably same,0.75,800.0,4989.7,8.485164452507185,2022-06-02 16:52:14,2.0943951023931953,0.8686868686868687,2.3999704234878214
Pilot,153,1,1,Non-designer,False,z_AD,z_AD,True,Probably different,0.6527777777777778,305.6,3829.75,8.225936548653992,2022-06-02 16:52:14,1.8813181614606647,0.7800925925925927,2.1654056643103177
Pilot,154,0,1,Non-designer,False,d_AD,d_BC,False,Sure same,0.45,800.0,7684.8,8.312637642171456,2022-06-02 14:40:11,1.4706289056333368,0.24747474747474746,1.0413558459092873
Pilot,154,1,1,Non-designer,False,e_AD,e_BC,False,Probably same,0.5555555555555556,375.0,3981.847222222222,8.272823820351483,2022-06-02 14:40:11,1.6821373411358604,0.5432098765432098,1.657324012180527
Pilot,155,0,1,Non-designer,False,d_BC,d_AD,False,Sure different,1.0,800.0,4218.45,8.301157046016758,2022-06-02 14:32:16,3.141592653589793,1.0,3.141592653589793
Pilot,155,1,1,Non-designer,False,n_AD,n_AD,True,Probably same,0.75,150.0,3468.0833333333335,8.122334569883375,2022-06-02 14:32:16,2.0943951023931953,0.7924382716049383,2.19552417130554
Pilot,156,0,1,Non-designer,False,d_BC,d_AD,False,Sure same,0.7,800.0,3714.85,8.203479382698685,2022-06-02 12:27:31,1.9823131728623846,0.7121212121212122,2.008921455194917
Pilot,156,1,1,Non-designer,False,a_AA,a_AA,True,Sure same,0.7916666666666666,275.0,3408.902777777778,8.117264756074242,2022-06-02 12:27:31,2.1936229122068998,0.8506944444444444,2.348140515364825
Pilot,157,0,1,Non-designer,False,d_BC,d_AD,False,Sure same,0.7,800.0,3419.35,8.119860458978922,2022-06-01 19:12:15,1.9823131728623846,0.6919191919191919,1.9647458431152662
Pilot,157,1,1,Non-designer,False,t_AB,t_AD,True,Probably different,0.75,275.0,2871.902777777778,7.957917315215427,2022-06-01 19:12:15,2.0943951023931953,0.7692901234567902,2.139547508544338
Pilot,158,0,1,Letter designer,True,d_AD,d_BC,False,Probably same,0.95,800.0,3829.5,8.22874391892239,2022-05-30 11:12:31,2.6905658417935303,0.9898989898989898,2.9402451464886394
Pilot,158,1,1,Letter designer,True,t_AD,t_BD,False,Probably different,0.9305555555555556,200.0,3198.9444444444443,8.05393587391331,2022-05-30 11:12:31,2.6082474046791386,0.9583333333333333,2.7304547912674453
Pilot,159,0,1,Letter designer,True,d_AD,d_BC,False,Probably different,1.0,800.0,5205.8,8.443546404324419,2022-05-30 09:47:20,3.141592653589793,1.0,3.141592653589793
Pilot,159,1,1,Letter designer,True,p_AD,p_AD,True,Sure same,0.8888888888888888,200.0,3904.375,8.24812593153974,2022-05-30 09:47:20,2.4619188346815495,0.9498456790123457,2.6898582853239366
Pilot,160,0,1,Non-designer,False,d_BC,d_AD,False,Sure same,0.8,800.0,3374.0,8.109340805993918,2022-05-29 18:56:04,2.214297435588181,0.8131313131313131,2.2475463652006167
Pilot,160,1,1,Non-designer,False,b_AD,b_AB,True,Probably different,0.75,300.0,2854.0555555555557,7.950015756836787,2022-05-29 18:56:04,2.0943951023931953,0.8256172839506173,2.280006466612278
Pilot,161,0,1,Letter designer,True,d_BC,d_AD,False,Sure different,0.95,800.0,3213.5,8.054435008740114,2022-05-29 18:33:59,2.6905658417935303,0.9393939393939393,2.6441125536712304
Pilot,161,1,1,Letter designer,True,r_AD,r_BD,False,Sure different,0.9583333333333334,233.3,2994.0694444444443,7.991000457406926,2022-05-29 18:33:59,2.7304547912674453,0.9571759259259259,2.724700663849532
Pilot,162,0,1,Typographer,True,i_BD,i_AD,False,Probably same,0.8,800.0,3279.55,8.081290408208142,2022-05-28 12:37:50,2.214297435588181,0.8434343434343434,2.327968093046432
Pilot,162,1,1,Typographer,True,j_DD,j_AA,False,Sure different,0.9166666666666666,543.6363636363636,3283.277777777778,8.09130398257959,2022-05-28 12:37:50,2.555907110132642,0.9313271604938272,2.6112905762566068
Pilot,163,0,1,Non-designer,False,u_AA,u_AA,True,Sure same,0.85,800.0,3266.45,8.077294131356318,2022-05-28 12:06:39,2.34619382340565,0.8686868686868686,2.3999704234878205
Pilot,163,1,1,Non-designer,False,n_AD,n_AD,True,Sure same,0.9027777777777778,578.0,3391.222222222222,8.119900560879195,2022-05-28 12:06:39,2.507408812765753,0.933641975308642,2.620516485323729
Pilot,164,0,1,Non-designer,False,d_AA,d_DD,False,Sure different,0.9,800.0,3279.05,8.07681481983978,2022-05-28 11:40:22,2.498091544796509,0.898989898989899,2.494732059198814
Pilot,164,1,1,Non-designer,False,c_AA,c_AA,True,Sure same,0.8333333333333334,543.6363636363636,3305.0694444444443,8.098168091552658,2022-05-28 11:40:22,2.300523983021863,0.8827160493827162,2.442508854104617
Pilot,165,0,1,Non-designer,False,i_DD,i_AA,False,Sure different,0.75,800.0,3568.45,8.165832480062473,2022-05-28 09:05:53,2.0943951023931953,0.6919191919191919,1.9647458431152662
Pilot,165,1,1,Non-designer,False,p_AD,p_AD,True,Probably same,0.8194444444444444,470.0,3454.0555555555557,8.144115232436015,2022-05-28 09:05:53,2.263849408374869,0.8638117283950617,2.385647415221997
Pilot,166,0,1,Non-designer,False,u_AB,u_CB,False,Sure different,0.85,800.0,3370.3,8.107458373453653,2022-05-27 17:52:35,2.34619382340565,0.9797979797979798,2.856359094468275
Pilot,166,1,1,Non-designer,False,a_AA,a_BB,False,Sure different,0.9583333333333334,591.6499999999999,3514.527777777778,8.149118172917632,2022-05-27 17:52:35,2.7304547912674453,0.9661458333333333,2.771494000713324
Pilot,167,0,1,Non-designer,False,c_AA,c_BB,False,Probably different,0.95,800.0,3710.05,8.202981507780809,2022-05-27 16:41:03,2.6905658417935303,0.9848484848484849,2.8947837201202202
Pilot,167,1,1,Non-designer,False,l_AA,l_AA,True,Sure same,0.9166666666666666,591.6499999999999,3617.722222222222,8.184101642447288,2022-05-27 16:41:03,2.555907110132642,0.9224537037037037,2.577188371641402
Pilot,168,0,1,Typographer,True,e_BD,e_CA,False,Probably same,0.65,800.0,3939.55,8.229247886843009,2022-05-26 17:19:37,1.8754889808102944,0.8484848484848485,2.3419593256893587
Pilot,168,1,1,Typographer,True,a_CB,a_DA,False,Sure different,0.7222222222222222,515.0,3635.1111111111113,8.189627466204811,2022-05-26 17:19:37,2.031350318476219,0.8175154320987654,2.2588448005122888
Pilot,169,0,1,Non-designer,False,e_BB,e_BB,True,Probably same,0.65,800.0,3763.25,8.214123684862125,2022-05-26 17:06:20,1.8754889808102944,0.7070707070707071,1.9977956465010391
Pilot,169,1,1,Non-designer,False,n_BB,n_AA,False,Probably different,0.7777777777777778,470.0,3582.4583333333335,8.17909568964048,2022-05-26 17:06:20,2.1598272970111707,0.8287037037037037,2.2881693295324013
Pilot,170,0,1,Non-designer,False,u_AB,u_AB,True,Probably same,0.65,800.0,3489.85,8.137186808275048,2022-05-26 10:09:14,1.8754889808102944,0.7474747474747474,2.0885730336456545
Pilot,170,1,1,Non-designer,False,a_AC,a_AB,True,Sure same,0.8333333333333334,672.5,3571.8888888888887,8.172008909174949,2022-05-26 10:09:14,2.300523983021863,0.8981481481481483,2.4919438624853387
Pilot,171,0,1,Non-designer,False,u_AD,u_AB,True,Probably different,0.6,800.0,3884.25,8.249858042016209,2022-05-26 09:50:37,1.7721542475852274,0.6515151515151515,1.8786671951929497
Pilot,171,1,1,Non-designer,False,u_CA,u_CA,True,Probably same,0.7361111111111112,543.6363636363636,3747.7916666666665,8.2148028530448,2022-05-26 09:50:37,2.0626064213603414,0.8526234567901234,2.353567687223368
Pilot,172,0,1,Non-designer,False,e_DC,e_DC,True,Sure same,0.75,800.0,2899.4,7.9622759534758405,2022-05-23 18:36:54,2.0943951023931953,0.8030303030303031,2.2218949117660145
Pilot,172,1,1,Non-designer,False,j_CC,j_AA,False,Sure different,0.4166666666666667,515.0,3150.5138888888887,8.04803649394146,2022-05-23 18:36:54,1.4033482475752073,0.7057613168724279,1.9949204146070465
Pilot,173,0,1,Non-designer,False,e_AB,e_AB,True,Probably same,0.6,800.0,3164.65,8.048920247274527,2022-05-23 18:01:23,1.7721542475852274,0.6919191919191919,1.9647458431152662
Pilot,173,1,1,Non-designer,False,h_DD,h_AA,False,Sure different,0.4027777777777778,543.6363636363636,2725.6111111111113,7.9072875974429975,2022-05-23 18:01:23,1.375105273929657,0.8081275720164608,2.2347750408774267
Pilot,174,0,1,Letter designer,True,e_BD,e_BA,True,Sure same,0.9,800.0,3120.85,8.02128769688154,2022-05-22 08:00:19,2.498091544796509,0.98989898989899,2.9402451464886417
Pilot,174,1,1,Letter designer,True,e_AC,e_AC,True,Sure same,0.9027777777777778,568.1818181818181,2912.4583333333335,7.958003087863592,2022-05-22 08:00:19,2.507408812765753,0.8333333333333334,2.300523983021863
