StudyID,ParticipantID,Composite pair,Congruent pair,TestID,TrialID,Training,isDesigner,Correct,Correct (normalized),ET,RT,RT (normalized),Date,AUC,AUC (normalized)
Main,0,False,True,1,24,Non-designer,False,0.9166666666666666,2.8797932657906453,266.7,3181.4166666666665,8.056989401594345,2022-06-17 13:55:27,0.9861111111111112,2.905341347605024
Main,0,True,False,1,24,Non-designer,False,0.5416666666666666,1.7016960206944713,266.7,3241.5416666666665,8.06746985561882,2022-06-17 13:55:27,0.6006944444444444,1.7735719819882494
Main,0,True,True,1,24,Non-designer,False,0.75,2.3561944901923457,266.7,3029.5833333333335,8.009355449999974,2022-06-17 13:55:27,0.6875,1.9551931012905357
Main,1,False,True,1,24,Letter designer,True,0.9166666666666666,2.8797932657906453,188.9,3447.4583333333335,8.130679392906096,2022-06-17 13:23:00,0.9340277777777778,2.6220685715193306
Main,1,True,False,1,24,Letter designer,True,0.7916666666666666,2.4870941840919207,188.9,4357.375,8.321411034126823,2022-06-17 13:23:00,0.8541666666666667,2.3579306047919957
Main,1,True,True,1,24,Letter designer,True,0.8333333333333334,2.6179938779914953,188.9,3928.4583333333335,8.235529334879597,2022-06-17 13:23:00,0.875,2.4188584057763776
Main,2,False,True,1,24,Graphic designer,True,1.0,3.141592653589795,188.9,3822.4166666666665,8.18378613591984,2022-06-17 13:16:58,1.0,3.141592653589793
Main,2,True,False,1,24,Graphic designer,True,0.7083333333333334,2.2252947962927707,188.9,5917.083333333333,8.545192053703182,2022-06-17 13:16:58,0.8229166666666667,2.2729106024000627
Main,2,True,True,1,24,Graphic designer,True,0.7916666666666666,2.4870941840919207,188.9,5194.208333333333,8.451883607357797,2022-06-17 13:16:58,0.8576388888888888,2.3678178364397025
Main,3,False,True,1,24,Letter designer,True,1.0,3.141592653589795,188.9,3347.7083333333335,8.093679066879096,2022-06-17 13:13:25,1.0,3.141592653589793
Main,3,True,False,1,24,Letter designer,True,0.8333333333333334,2.6179938779914953,188.9,3539.7916666666665,8.153425559448172,2022-06-17 13:13:25,0.8472222222222222,2.3384438482029277
Main,3,True,True,1,24,Letter designer,True,0.8333333333333334,2.6179938779914953,188.9,3292.7083333333335,8.068734079550195,2022-06-17 13:13:25,0.8888888888888888,2.4619188346815495
Main,4,False,True,1,24,Typographer,True,0.9166666666666666,2.8797932657906453,383.3,3646.75,8.189325333599799,2022-06-17 12:59:26,0.9583333333333333,2.7304547912674453
Main,4,True,False,1,24,Typographer,True,0.8333333333333334,2.6179938779914953,383.3,3331.6666666666665,8.10264305205146,2022-06-17 12:59:26,0.8854166666666667,2.450944585031871
Main,4,True,True,1,24,Typographer,True,0.75,2.3561944901923457,383.3,3706.2083333333335,8.191510591802519,2022-06-17 12:59:26,0.8576388888888888,2.3678178364397025
Main,5,False,True,1,24,Letter designer,True,1.0,3.141592653589795,422.2,3427.7083333333335,8.12446990308744,2022-06-16 18:13:36,1.0,3.141592653589793
Main,5,True,False,1,24,Letter designer,True,0.625,1.9634954084936211,422.2,3631.4583333333335,8.183901566402762,2022-06-16 18:13:36,0.625,1.8234765819369754
Main,5,True,True,1,24,Letter designer,True,0.625,1.9634954084936211,422.2,3974.5,8.256517679875438,2022-06-16 18:13:36,0.7118055555555556,2.0082244080345784
Main,6,False,True,1,24,Graphic designer,True,0.6666666666666666,2.094395102393196,383.3,3692.1666666666665,8.179797775057677,2022-06-16 13:04:57,0.71875,2.023612921539822
Main,6,True,False,1,24,Graphic designer,True,0.625,1.9634954084936211,383.3,3646.5833333333335,8.12490717997561,2022-06-16 13:04:57,0.6076388888888888,1.787772594976821
Main,6,True,True,1,24,Graphic designer,True,0.4166666666666667,1.3089969389957472,383.3,4130.166666666667,8.254639149365266,2022-06-16 13:04:57,0.40277777777777773,1.375105273929657
Main,7,False,True,1,24,Typographer,True,0.9166666666666666,2.8797932657906453,188.9,3225.4583333333335,8.06579802341083,2022-06-16 12:47:46,0.9166666666666667,2.555907110132642
Main,7,True,False,1,24,Typographer,True,0.6666666666666666,2.094395102393196,188.9,3643.5416666666665,8.17741130240796,2022-06-16 12:47:46,0.6215277777777778,1.816310957967323
Main,7,True,True,1,24,Typographer,True,0.8333333333333334,2.6179938779914953,188.9,3503.0,8.146408514946286,2022-06-16 12:47:46,0.9236111111111112,2.581530740897968
Main,8,False,True,1,24,Graphic designer,True,0.9583333333333334,3.01069295969022,305.6,2621.2083333333335,7.869233121179657,2022-06-16 07:57:35,1.0,3.141592653589793
Main,8,True,False,1,24,Graphic designer,True,0.6666666666666666,2.094395102393196,305.6,2866.5833333333335,7.954646263350859,2022-06-16 07:57:35,0.7708333333333334,2.143214898887717
Main,8,True,True,1,24,Graphic designer,True,0.75,2.3561944901923457,305.6,2938.4583333333335,7.96827132664195,2022-06-16 07:57:35,0.8020833333333333,2.2195160051354748
Main,9,False,True,1,24,Graphic designer,True,0.7916666666666666,2.4870941840919207,227.8,2702.3333333333335,7.8867993770721485,2022-06-16 04:46:08,0.7916666666666667,2.1936229122068998
Main,9,True,False,1,24,Graphic designer,True,0.5416666666666666,1.7016960206944713,227.8,2665.5416666666665,7.861037652457768,2022-06-16 04:46:08,0.5416666666666667,1.6542264134055118
Main,9,True,True,1,24,Graphic designer,True,0.625,1.9634954084936211,227.8,2699.4166666666665,7.890463322399423,2022-06-16 04:46:08,0.625,1.8234765819369754
Main,10,False,True,1,24,Graphic designer,True,0.7916666666666666,2.4870941840919207,305.6,3087.3333333333335,8.017202317029744,2022-06-15 17:28:10,0.8819444444444444,2.440114173836071
Main,10,True,False,1,24,Graphic designer,True,0.75,2.3561944901923457,305.6,2997.5833333333335,7.997809192350964,2022-06-15 17:28:10,0.6875,1.9551931012905357
Main,10,True,True,1,24,Graphic designer,True,0.625,1.9634954084936211,305.6,2996.4166666666665,7.995235068211184,2022-06-15 17:28:10,0.6666666666666666,1.9106332362490186
Main,11,False,True,1,24,Other designer,True,0.9166666666666666,2.8797932657906453,305.6,2978.75,7.981096875407567,2022-06-15 14:02:35,0.892361111111111,2.4730441877849247
Main,11,True,False,1,24,Other designer,True,0.625,1.9634954084936211,305.6,2912.7916666666665,7.962885349961017,2022-06-15 14:02:35,0.5868055555555556,1.7452916137520267
Main,11,True,True,1,24,Other designer,True,0.6666666666666666,2.094395102393196,305.6,2893.2083333333335,7.957191007891471,2022-06-15 14:02:35,0.6805555555555555,1.9402554566946664
Main,12,False,True,1,24,Graphic designer,True,1.0,3.141592653589795,266.7,2921.5,7.975762478065881,2022-06-15 13:54:17,1.0,3.141592653589793
Main,12,True,False,1,24,Graphic designer,True,0.7916666666666666,2.4870941840919207,266.7,2903.9583333333335,7.970521119159013,2022-06-15 13:54:17,0.8993055555555556,2.4957802891906757
Main,12,True,True,1,24,Graphic designer,True,0.75,2.3561944901923457,266.7,3025.5416666666665,8.001083135425299,2022-06-15 13:54:17,0.8680555555555556,2.398103111175434
Main,13,False,True,1,24,Graphic designer,True,0.9166666666666666,2.8797932657906453,266.7,2905.7916666666665,7.9554136993855735,2022-06-15 13:41:58,0.9583333333333333,2.7304547912674453
Main,13,True,False,1,24,Graphic designer,True,0.5833333333333334,1.8325957145940464,266.7,3032.375,8.003778202672253,2022-06-15 13:41:58,0.6874999999999999,1.9551931012905353
Main,13,True,True,1,24,Graphic designer,True,0.8333333333333334,2.6179938779914953,266.7,2882.2916666666665,7.956159421174097,2022-06-15 13:41:58,0.8055555555555556,2.2282598831765403
Main,14,False,True,1,24,Letter designer,True,1.0,3.141592653589795,266.7,3471.5,8.130195486602343,2022-06-15 13:41:27,1.0,3.141592653589793
Main,14,True,False,1,24,Letter designer,True,0.7916666666666666,2.4870941840919207,266.7,3639.375,8.164610989403705,2022-06-15 13:41:27,0.7743055555555556,2.1514984614969883
Main,14,True,True,1,24,Letter designer,True,0.7083333333333334,2.2252947962927707,266.7,3627.2916666666665,8.143381170447478,2022-06-15 13:41:27,0.7604166666666666,2.118623177761846
Main,15,False,True,1,24,Graphic designer,True,1.0,3.141592653589795,227.8,3225.0833333333335,8.044692896127387,2022-06-15 13:40:25,1.0,3.141592653589793
Main,15,True,False,1,24,Graphic designer,True,0.8333333333333334,2.6179938779914953,227.8,3245.125,8.054516502544642,2022-06-15 13:40:25,0.8333333333333334,2.300523983021863
Main,15,True,True,1,24,Graphic designer,True,0.7916666666666666,2.4870941840919207,227.8,3203.875,8.050191537553074,2022-06-15 13:40:25,0.7916666666666666,2.1936229122068998
Main,16,False,True,1,24,Graphic designer,True,0.9166666666666666,2.8797932657906453,305.6,3495.4166666666665,8.141637631626795,2022-06-15 13:39:31,1.0,3.141592653589793
Main,16,True,False,1,24,Graphic designer,True,0.625,1.9634954084936211,305.6,3384.6666666666665,8.12100230823878,2022-06-15 13:39:31,0.6180555555555556,1.8091581770186695
Main,16,True,True,1,24,Graphic designer,True,0.6666666666666666,2.094395102393196,305.6,3798.0,8.20000640808416,2022-06-15 13:39:31,0.6909722222222223,1.9626956661099333
Main,17,False,True,1,24,Graphic designer,True,0.9166666666666666,2.8797932657906453,344.4,3376.3333333333335,8.107812686209158,2022-06-15 13:38:26,0.9166666666666667,2.555907110132642
Main,17,True,False,1,24,Graphic designer,True,0.75,2.3561944901923457,344.4,3228.4583333333335,8.06824363312008,2022-06-15 13:38:26,0.7465277777777777,2.0863947400932874
Main,17,True,True,1,24,Graphic designer,True,0.7083333333333334,2.2252947962927707,344.4,3237.75,8.068193274372966,2022-06-15 13:38:26,0.75,2.0943951023931953
Main,18,False,True,1,24,Graphic designer,True,0.7083333333333334,2.2252947962927707,188.9,2911.2083333333335,7.959815686806791,2022-06-15 13:35:57,0.8125000000000001,2.2459278597319288
Main,18,True,False,1,24,Graphic designer,True,0.5416666666666666,1.7016960206944713,188.9,3040.75,7.9966947690764805,2022-06-15 13:35:57,0.5798611111111112,1.7312055830707482
Main,18,True,True,1,24,Graphic designer,True,0.75,2.3561944901923457,188.9,3200.5416666666665,8.031526012143717,2022-06-15 13:35:57,0.71875,2.023612921539822
Main,19,False,True,1,24,Letter designer,True,0.9583333333333334,3.01069295969022,227.8,2869.625,7.930019200159297,2022-06-09 10:51:13,0.9583333333333333,2.7304547912674453
Main,19,True,False,1,24,Letter designer,True,0.6666666666666666,2.094395102393196,227.8,2783.6666666666665,7.915356001136321,2022-06-09 10:51:13,0.6875,1.9551931012905357
Main,19,True,True,1,24,Letter designer,True,0.8333333333333334,2.6179938779914953,227.8,2876.7083333333335,7.930995065055087,2022-06-09 10:51:13,0.8194444444444444,2.263849408374869
Main,20,False,True,1,24,Letter designer,True,0.9166666666666666,2.8797932657906453,188.9,3219.5,8.066864922949712,2022-06-08 22:02:06,1.0,3.141592653589793
Main,20,True,False,1,24,Letter designer,True,0.6666666666666666,2.094395102393196,188.9,3379.6666666666665,8.11709911525505,2022-06-08 22:02:06,0.7083333333333333,2.000571758099424
Main,20,True,True,1,24,Letter designer,True,0.7916666666666666,2.4870941840919207,188.9,3478.0416666666665,8.137813889250012,2022-06-08 22:02:06,0.84375,2.3288370922211326
Main,21,False,True,1,24,Letter designer,True,0.9583333333333334,3.01069295969022,227.8,3429.2916666666665,8.118526880936821,2022-06-08 20:22:01,1.0,3.141592653589793
Main,21,True,False,1,24,Letter designer,True,0.8333333333333334,2.6179938779914953,227.8,3921.25,8.241853733002044,2022-06-08 20:22:01,0.9270833333333335,2.594742484633124
Main,21,True,True,1,24,Letter designer,True,0.9166666666666666,2.8797932657906453,227.8,4020.4166666666665,8.259686098580776,2022-06-08 20:22:01,0.9513888888888888,2.6969810317966414
Main,22,False,True,1,24,Letter designer,True,0.9166666666666666,2.8797932657906453,344.4,3142.0833333333335,8.03168505356871,2022-06-08 19:49:15,0.9583333333333333,2.7304547912674453
Main,22,True,False,1,24,Letter designer,True,0.875,2.7488935718910703,344.4,3361.9166666666665,8.105426082971713,2022-06-08 19:49:15,0.96875,2.7861714518995697
Main,22,True,True,1,24,Letter designer,True,0.8333333333333334,2.6179938779914953,344.4,3113.6666666666665,8.035582010030954,2022-06-08 19:49:15,0.9375,2.6362321433056364
Main,23,False,True,1,24,Letter designer,True,0.7916666666666666,2.4870941840919207,150.0,3142.6666666666665,8.01830912044002,2022-06-08 18:16:03,0.96875,2.7861714518995697
Main,23,True,False,1,24,Letter designer,True,0.75,2.3561944901923457,150.0,3387.0,8.10539245370621,2022-06-08 18:16:03,0.84375,2.3288370922211326
Main,23,True,True,1,24,Letter designer,True,0.7916666666666666,2.4870941840919207,150.0,3263.5833333333335,8.075299430338456,2022-06-08 18:16:03,0.8125,2.245927859731928
Main,24,False,True,1,24,Graphic designer,True,0.6666666666666666,2.094395102393196,188.9,3533.25,8.15304940879002,2022-06-07 22:30:15,0.9583333333333333,2.7304547912674453
Main,24,True,False,1,24,Graphic designer,True,0.625,1.9634954084936211,188.9,3527.875,8.155668115645435,2022-06-07 22:30:15,0.7048611111111112,1.99294585748357
Main,24,True,True,1,24,Graphic designer,True,0.7916666666666666,2.4870941840919207,188.9,3474.625,8.147265739053882,2022-06-07 22:30:15,0.8020833333333334,2.2195160051354748
Main,25,False,True,1,24,Letter designer,True,0.9166666666666666,2.8797932657906453,188.9,3573.0416666666665,8.172375001020567,2022-06-07 16:32:24,0.9930555555555556,2.974732480368565
Main,25,True,False,1,24,Letter designer,True,0.7083333333333334,2.2252947962927707,188.9,3850.4166666666665,8.239391076186408,2022-06-07 16:32:24,0.7604166666666667,2.118623177761846
Main,25,True,True,1,24,Letter designer,True,0.7916666666666666,2.4870941840919207,188.9,4074.625,8.250622663540101,2022-06-07 16:32:24,0.8125,2.245927859731928
Main,26,False,True,1,24,Graphic designer,True,1.0,3.141592653589795,188.9,2903.5833333333335,7.954660310735718,2022-06-07 14:25:41,1.0,3.141592653589793
Main,26,True,False,1,24,Graphic designer,True,0.8333333333333334,2.6179938779914953,188.9,2979.625,7.976085532660183,2022-06-07 14:25:41,0.763888888888889,2.126778479315439
Main,26,True,True,1,24,Graphic designer,True,0.875,2.7488935718910703,188.9,2814.1666666666665,7.926087246586863,2022-06-07 14:25:41,0.9375,2.6362321433056364
Main,27,False,True,1,24,Letter designer,True,0.9166666666666666,2.8797932657906453,461.1,3382.9166666666665,8.11209968312224,2022-06-07 06:30:44,0.9791666666666666,2.8519056595926737
Main,27,True,False,1,24,Letter designer,True,0.875,2.7488935718910703,461.1,3490.5,8.153393324956545,2022-06-07 06:30:44,0.8645833333333334,2.3878997609690744
Main,27,True,True,1,24,Letter designer,True,0.875,2.7488935718910703,461.1,3397.3333333333335,8.125850506669975,2022-06-07 06:30:44,0.8680555555555556,2.398103111175434
Main,28,False,True,1,24,Non-designer,False,0.9166666666666666,2.8797932657906453,422.2,3043.5,8.00414681703216,2022-06-07 01:48:54,0.9930555555555556,2.974732480368565
Main,28,True,False,1,24,Non-designer,False,0.7083333333333334,2.2252947962927707,422.2,3408.6666666666665,8.117003342594442,2022-06-07 01:48:54,0.7222222222222221,2.0313503184762185
Main,28,True,True,1,24,Non-designer,False,0.7916666666666666,2.4870941840919207,422.2,3060.8333333333335,8.020473053044798,2022-06-07 01:48:54,0.8576388888888888,2.3678178364397025
Main,29,False,True,1,24,Graphic designer,True,0.7916666666666666,2.4870941840919207,150.0,3706.3333333333335,8.188303824419679,2022-06-07 01:42:23,0.9409722222222221,2.650767976949863
Main,29,True,False,1,24,Graphic designer,True,0.6666666666666666,2.094395102393196,150.0,4133.875,8.270752320868105,2022-06-07 01:42:23,0.7638888888888888,2.1267784793154387
Main,29,True,True,1,24,Graphic designer,True,0.8333333333333334,2.6179938779914953,150.0,3934.6666666666665,8.233847956858105,2022-06-07 01:42:23,0.8506944444444444,2.348140515364825
Main,30,False,True,1,24,Other designer,True,0.7916666666666666,2.4870941840919207,227.8,3455.5833333333335,8.132974693242646,2022-06-06 23:29:06,0.9583333333333333,2.7304547912674453
Main,30,True,False,1,24,Other designer,True,0.5416666666666666,1.7016960206944713,227.8,3489.75,8.148615278137987,2022-06-06 23:29:06,0.6145833333333334,1.8020178062522454
Main,30,True,True,1,24,Other designer,True,0.6666666666666666,2.094395102393196,227.8,3683.4583333333335,8.184628944116561,2022-06-06 23:29:06,0.8333333333333334,2.300523983021863
Main,31,False,True,1,24,Non-designer,False,0.8333333333333334,2.6179938779914953,150.0,3864.0416666666665,8.208391218801083,2022-06-06 18:39:58,0.8333333333333333,2.3005239830218627
Main,31,True,False,1,24,Non-designer,False,0.5833333333333334,1.8325957145940464,150.0,3312.25,8.089205222477554,2022-06-06 18:39:58,0.5694444444444444,1.710135667552666
Main,31,True,True,1,24,Non-designer,False,0.75,2.3561944901923457,150.0,3867.25,8.22944095611467,2022-06-06 18:39:58,0.7395833333333334,2.070501367554261
Main,32,False,True,1,24,Graphic designer,True,0.8333333333333334,2.6179938779914953,150.0,2924.1666666666665,7.959436514182783,2022-06-06 18:31:25,0.9444444444444443,2.6657104039293764
Main,32,True,False,1,24,Graphic designer,True,0.75,2.3561944901923457,150.0,3089.9166666666665,8.015466753693602,2022-06-06 18:31:25,0.84375,2.3288370922211326
Main,32,True,True,1,24,Graphic designer,True,0.75,2.3561944901923457,150.0,2904.8333333333335,7.967833763430073,2022-06-06 18:31:25,0.8854166666666667,2.450944585031871
Main,33,False,True,1,24,Graphic designer,True,1.0,3.141592653589795,150.0,2292.125,7.72848591262913,2022-06-06 17:05:57,1.0,3.141592653589793
Main,33,True,False,1,24,Graphic designer,True,0.7916666666666666,2.4870941840919207,150.0,2579.75,7.847477381496868,2022-06-06 17:05:57,0.7777777777777777,2.15982729701117
Main,33,True,True,1,24,Graphic designer,True,0.875,2.7488935718910703,150.0,2659.2083333333335,7.868327321957693,2022-06-06 17:05:57,0.8784722222222221,2.429420866463615
Main,34,False,True,1,24,Typographer,True,0.9166666666666666,2.8797932657906453,188.9,3497.375,8.051075600316915,2022-06-06 17:02:57,0.9861111111111112,2.905341347605024
Main,34,True,False,1,24,Typographer,True,0.75,2.3561944901923457,188.9,3332.5833333333335,8.056618608843735,2022-06-06 17:02:57,0.7638888888888888,2.1267784793154387
Main,34,True,True,1,24,Typographer,True,0.75,2.3561944901923457,188.9,2925.6666666666665,7.969261762208592,2022-06-06 17:02:57,0.78125,2.168202743440247
Main,35,False,True,1,24,Letter designer,True,0.875,2.7488935718910703,227.8,2790.6666666666665,7.922251523169861,2022-06-06 14:18:08,0.9583333333333333,2.7304547912674453
Main,35,True,False,1,24,Letter designer,True,0.625,1.9634954084936211,227.8,3392.375,8.090481769470463,2022-06-06 14:18:08,0.6354166666666667,1.845054940283527
Main,35,True,True,1,24,Letter designer,True,0.5833333333333334,1.8325957145940464,227.8,3178.375,8.045405125429529,2022-06-06 14:18:08,0.6631944444444444,1.903277040250473
Main,36,False,True,1,24,Letter designer,True,0.9166666666666666,2.8797932657906453,150.0,3601.1666666666665,8.176715655622985,2022-06-06 11:48:27,1.0,3.141592653589793
Main,36,True,False,1,24,Letter designer,True,0.8333333333333334,2.6179938779914953,150.0,3970.75,8.254943932862409,2022-06-06 11:48:27,0.875,2.4188584057763776
Main,36,True,True,1,24,Letter designer,True,0.75,2.3561944901923457,150.0,3887.0416666666665,8.247203401769493,2022-06-06 11:48:27,0.7430555555555555,2.0784304895182757
Main,37,False,True,1,24,Graphic designer,True,0.9166666666666666,2.8797932657906453,383.3,3248.9583333333335,8.048861739247071,2022-06-06 10:44:45,0.9722222222222222,2.806696495150415
Main,37,True,False,1,24,Graphic designer,True,0.7083333333333334,2.2252947962927707,383.3,3391.7916666666665,8.108610986181434,2022-06-06 10:44:45,0.704861111111111,1.9929458574835694
Main,37,True,True,1,24,Graphic designer,True,0.7083333333333334,2.2252947962927707,383.3,3308.75,8.087007365611209,2022-06-06 10:44:45,0.6909722222222222,1.962695666109933
Main,38,False,True,1,24,Letter designer,True,1.0,3.141592653589795,150.0,2797.4583333333335,7.932913408017707,2022-06-06 08:54:10,1.0,3.141592653589793
Main,38,True,False,1,24,Letter designer,True,0.7916666666666666,2.4870941840919207,150.0,3143.2916666666665,8.028212376770629,2022-06-06 08:54:10,0.8055555555555556,2.2282598831765403
Main,38,True,True,1,24,Letter designer,True,0.7083333333333334,2.2252947962927707,150.0,2899.75,7.960857909823474,2022-06-06 08:54:10,0.7916666666666666,2.1936229122068998
Main,39,False,True,1,24,Letter designer,True,0.9166666666666666,2.8797932657906453,150.0,3364.375,8.071303269740833,2022-06-06 07:43:42,1.0,3.141592653589793
Main,39,True,False,1,24,Letter designer,True,0.8333333333333334,2.6179938779914953,150.0,3900.9583333333335,8.193618670324591,2022-06-06 07:43:42,0.8958333333333333,2.4843285003442768
Main,39,True,True,1,24,Letter designer,True,0.7916666666666666,2.4870941840919207,150.0,3287.0,8.079550816953455,2022-06-06 07:43:42,0.84375,2.3288370922211326
Main,40,False,True,1,24,Letter designer,True,0.875,2.7488935718910703,150.0,4089.9583333333335,8.210485620004473,2022-06-06 06:49:39,0.875,2.4188584057763776
Main,40,True,False,1,24,Letter designer,True,0.6666666666666666,2.094395102393196,150.0,3825.8333333333335,8.238491698545683,2022-06-06 06:49:39,0.6041666666666667,1.7806669190576345
Main,40,True,True,1,24,Letter designer,True,0.7916666666666666,2.4870941840919207,150.0,3500.0416666666665,8.153631670291999,2022-06-06 06:49:39,0.7638888888888888,2.1267784793154387
Main,41,False,True,1,24,Typographer,True,0.9583333333333334,3.01069295969022,266.7,3210.625,8.070237321557544,2022-06-05 22:53:26,0.9583333333333333,2.7304547912674453
Main,41,True,False,1,24,Typographer,True,0.7916666666666666,2.4870941840919207,266.7,3526.2083333333335,8.13325135954069,2022-06-05 22:53:26,0.861111111111111,2.3778061571919618
Main,41,True,True,1,24,Typographer,True,0.7916666666666666,2.4870941840919207,266.7,3335.6666666666665,8.10692971798202,2022-06-05 22:53:26,0.7777777777777779,2.159827297011171
Main,42,False,True,1,24,Other designer,True,0.7916666666666666,2.4870941840919207,305.6,4098.583333333333,8.221626910492402,2022-06-05 22:26:55,0.8333333333333333,2.3005239830218627
Main,42,True,False,1,24,Other designer,True,0.6666666666666666,2.094395102393196,305.6,3635.1666666666665,8.167873954962072,2022-06-05 22:26:55,0.7152777777777779,2.0159045437472427
Main,42,True,True,1,24,Other designer,True,0.8333333333333334,2.6179938779914953,305.6,3535.9166666666665,8.11806768613225,2022-06-05 22:26:55,0.8229166666666666,2.2729106024000627
Main,43,False,True,1,24,Graphic designer,True,0.875,2.7488935718910703,266.7,3513.9166666666665,8.132510032425701,2022-06-05 21:21:07,0.9583333333333334,2.7304547912674453
Main,43,True,False,1,24,Graphic designer,True,0.6666666666666666,2.094395102393196,266.7,3767.7916666666665,8.20711657155033,2022-06-05 21:21:07,0.7708333333333333,2.1432148988877167
Main,43,True,True,1,24,Graphic designer,True,0.7083333333333334,2.2252947962927707,266.7,3418.25,8.118928894947773,2022-06-05 21:21:07,0.7048611111111112,1.99294585748357
Main,44,False,True,1,24,Graphic designer,True,0.875,2.7488935718910703,227.8,3050.5833333333335,8.00516834455619,2022-06-05 21:01:05,0.9583333333333333,2.7304547912674453
Main,44,True,False,1,24,Graphic designer,True,0.7083333333333334,2.2252947962927707,227.8,3229.6666666666665,8.07420245660918,2022-06-05 21:01:05,0.8125,2.245927859731928
Main,44,True,True,1,24,Graphic designer,True,0.7916666666666666,2.4870941840919207,227.8,3233.75,8.073133390023306,2022-06-05 21:01:05,0.7951388888888888,2.2021992493074145
Main,45,False,True,1,24,Letter designer,True,0.9583333333333334,3.01069295969022,188.9,3002.9166666666665,8.000068579706802,2022-06-05 20:33:21,0.9930555555555556,2.974732480368565
Main,45,True,False,1,24,Letter designer,True,0.7916666666666666,2.4870941840919207,188.9,3260.7083333333335,8.074405914437785,2022-06-05 20:33:21,0.8645833333333334,2.3878997609690744
Main,45,True,True,1,24,Letter designer,True,0.8333333333333334,2.6179938779914953,188.9,3291.6666666666665,8.069971645022054,2022-06-05 20:33:21,0.8541666666666666,2.3579306047919952
Main,46,False,True,1,24,Non-designer,False,0.9583333333333334,3.01069295969022,422.2,4375.958333333333,8.363487352181158,2022-06-05 20:08:14,0.9930555555555556,2.974732480368565
Main,46,True,False,1,24,Non-designer,False,0.625,1.9634954084936211,422.2,4535.166666666667,8.390338331108461,2022-06-05 20:08:14,0.6527777777777778,1.8813181614606647
Main,46,True,True,1,24,Non-designer,False,0.625,1.9634954084936211,422.2,4653.708333333333,8.414502570357477,2022-06-05 20:08:14,0.7222222222222222,2.031350318476219
Main,47,False,True,1,24,Graphic designer,True,0.9166666666666666,2.8797932657906453,188.9,3203.625,8.052684840537045,2022-06-05 19:31:27,0.951388888888889,2.6969810317966427
Main,47,True,False,1,24,Graphic designer,True,0.75,2.3561944901923457,188.9,3679.875,8.189545118262265,2022-06-05 19:31:27,0.7986111111111112,2.2108297158166645
Main,47,True,True,1,24,Graphic designer,True,0.7916666666666666,2.4870941840919207,188.9,4211.666666666667,8.270827234541745,2022-06-05 19:31:27,0.9583333333333334,2.7304547912674453
Main,48,False,True,1,24,Graphic designer,True,0.7916666666666666,2.4870941840919207,150.0,2459.75,7.798353935597823,2022-06-05 19:29:54,0.826388888888889,2.282041790980738
Main,48,True,False,1,24,Graphic designer,True,0.75,2.3561944901923457,150.0,3154.5416666666665,7.949513993647199,2022-06-05 19:29:54,0.78125,2.168202743440247
Main,48,True,True,1,24,Graphic designer,True,0.625,1.9634954084936211,150.0,2730.9166666666665,7.882517763630063,2022-06-05 19:29:54,0.6736111111111112,1.92540373082181
Main,49,False,True,1,24,Letter designer,True,0.9583333333333334,3.01069295969022,266.7,3846.5,8.228856468946317,2022-06-05 18:51:07,1.0,3.141592653589793
Main,49,True,False,1,24,Letter designer,True,0.7083333333333334,2.2252947962927707,266.7,3860.0,8.238057288177307,2022-06-05 18:51:07,0.6909722222222222,1.962695666109933
Main,49,True,True,1,24,Letter designer,True,0.7083333333333334,2.2252947962927707,266.7,3717.0833333333335,8.21394374165,2022-06-05 18:51:07,0.8090277777777778,2.237063192983825
Main,50,False,True,1,24,Letter designer,True,1.0,3.141592653589795,227.8,2750.0416666666665,7.913998450896461,2022-06-05 18:31:16,1.0,3.141592653589793
Main,50,True,False,1,24,Letter designer,True,0.8333333333333334,2.6179938779914953,227.8,3076.1666666666665,8.01208437346362,2022-06-05 18:31:16,0.8194444444444444,2.263849408374869
Main,50,True,True,1,24,Letter designer,True,0.7916666666666666,2.4870941840919207,227.8,2837.7083333333335,7.937518128098971,2022-06-05 18:31:16,0.8541666666666666,2.3579306047919952
Main,51,False,True,1,24,Letter designer,True,0.9166666666666666,2.8797932657906453,150.0,2864.2083333333335,7.952391874977459,2022-06-05 18:09:18,1.0,3.141592653589793
Main,51,True,False,1,24,Letter designer,True,0.7083333333333334,2.2252947962927707,150.0,2868.5,7.958002794798072,2022-06-05 18:09:18,0.7847222222222222,2.176626189857009
Main,51,True,True,1,24,Letter designer,True,0.7916666666666666,2.4870941840919207,150.0,3053.125,8.005220363963023,2022-06-05 18:09:18,0.8888888888888888,2.4619188346815495
Main,52,False,True,1,24,Non-designer,False,0.9583333333333334,3.01069295969022,383.3,3395.6666666666665,8.123112067935184,2022-06-05 16:50:39,1.0,3.141592653589793
Main,52,True,False,1,24,Non-designer,False,0.7083333333333334,2.2252947962927707,383.3,3670.625,8.183375817186496,2022-06-05 16:50:39,0.7256944444444444,2.03911753334995
Main,52,True,True,1,24,Non-designer,False,0.625,1.9634954084936211,383.3,3379.5,8.118062395078717,2022-06-05 16:50:39,0.5902777777777778,1.7523475875919814
Main,53,False,True,1,24,Non-designer,False,0.9583333333333334,3.01069295969022,227.8,2981.875,7.989760970821988,2022-06-05 16:47:05,0.9965277777777777,3.02367321572185
Main,53,True,False,1,24,Non-designer,False,0.625,1.9634954084936211,227.8,3615.5416666666665,8.177630878536705,2022-06-05 16:47:05,0.53125,1.633337088591388
Main,53,True,True,1,24,Non-designer,False,0.6666666666666666,2.094395102393196,227.8,3445.75,8.126997181836513,2022-06-05 16:47:05,0.736111111111111,2.062606421360341
Main,54,False,True,1,24,Graphic designer,True,0.9166666666666666,2.8797932657906453,305.6,3783.5416666666665,8.224342030002013,2022-06-05 15:54:05,0.9583333333333333,2.7304547912674453
Main,54,True,False,1,24,Graphic designer,True,0.7916666666666666,2.4870941840919207,305.6,3861.4583333333335,8.234470349395929,2022-06-05 15:54:05,0.8298611111111112,2.291245401253045
Main,54,True,True,1,24,Graphic designer,True,0.7916666666666666,2.4870941840919207,305.6,3834.2083333333335,8.239937682809503,2022-06-05 15:54:05,0.78125,2.168202743440247
Main,55,False,True,1,24,Non-designer,False,0.9166666666666666,2.8797932657906453,188.9,2978.7083333333335,7.986308491243523,2022-06-05 15:51:33,0.9513888888888887,2.6969810317966405
Main,55,True,False,1,24,Non-designer,False,0.625,1.9634954084936211,188.9,3020.6666666666665,7.996101921027386,2022-06-05 15:51:33,0.6979166666666667,1.9777714524236538
Main,55,True,True,1,24,Non-designer,False,0.7083333333333334,2.2252947962927707,188.9,3079.5416666666665,8.018994899307277,2022-06-05 15:51:33,0.7430555555555556,2.0784304895182757
Main,56,False,True,1,24,Letter designer,True,1.0,3.141592653589795,227.8,3270.0,8.07667299116654,2022-06-05 15:27:09,1.0,3.141592653589793
Main,56,True,False,1,24,Letter designer,True,0.875,2.7488935718910703,227.8,3580.9166666666665,8.154127363960429,2022-06-05 15:27:09,0.875,2.4188584057763776
Main,56,True,True,1,24,Letter designer,True,0.7916666666666666,2.4870941840919207,227.8,3382.9166666666665,8.118425095215105,2022-06-05 15:27:09,0.8333333333333333,2.3005239830218627
Main,57,False,True,1,24,Letter designer,True,1.0,3.141592653589795,305.6,3249.625,8.039518737234856,2022-06-05 15:02:33,1.0,3.141592653589793
Main,57,True,False,1,24,Letter designer,True,0.5,1.5707963267948966,305.6,3649.6666666666665,8.149444491194066,2022-06-05 15:02:33,0.39583333333333337,1.360925734532159
Main,57,True,True,1,24,Letter designer,True,0.625,1.9634954084936211,305.6,3436.4166666666665,8.125413194050399,2022-06-05 15:02:33,0.576388888888889,1.7241747675337893
Main,58,False,True,1,24,Other designer,True,0.75,2.3561944901923457,344.4,3442.5833333333335,8.134719613524922,2022-06-05 13:28:58,0.736111111111111,2.062606421360341
Main,58,True,False,1,24,Other designer,True,0.7083333333333334,2.2252947962927707,344.4,3758.5,8.208386692814786,2022-06-05 13:28:58,0.7847222222222223,2.176626189857009
Main,58,True,True,1,24,Other designer,True,0.8333333333333334,2.6179938779914953,344.4,3986.5416666666665,8.247907071004361,2022-06-05 13:28:58,0.8506944444444444,2.348140515364825
Main,59,False,True,1,24,Non-designer,False,0.7916666666666666,2.4870941840919207,150.0,3140.5833333333335,8.027817107087015,2022-06-05 12:42:17,0.8854166666666666,2.4509445850318703
Main,59,True,False,1,24,Non-designer,False,0.7916666666666666,2.4870941840919207,150.0,2935.4166666666665,7.978100980150079,2022-06-05 12:42:17,0.8194444444444445,2.2638494083748695
Main,59,True,True,1,24,Non-designer,False,0.8333333333333334,2.6179938779914953,150.0,3114.875,8.022242691610542,2022-06-05 12:42:17,0.8159722222222222,2.2548558961444116
Main,60,False,True,1,24,Non-designer,False,0.9166666666666666,2.8797932657906453,461.1,3775.625,8.218707486194294,2022-06-05 12:37:07,0.9583333333333334,2.7304547912674453
Main,60,True,False,1,24,Non-designer,False,0.5833333333333334,1.8325957145940464,461.1,3889.125,8.245481707569338,2022-06-05 12:37:07,0.5902777777777777,1.752347587591981
Main,60,True,True,1,24,Non-designer,False,0.625,1.9634954084936211,461.1,3852.5,8.243446062340814,2022-06-05 12:37:07,0.7534722222222221,2.1024325913382205
Main,61,False,True,1,24,Graphic designer,True,0.9166666666666666,2.8797932657906453,538.9,3975.0,8.273438635866144,2022-06-05 10:06:58,0.9305555555555556,2.6082474046791386
Main,61,True,False,1,24,Graphic designer,True,0.7083333333333334,2.2252947962927707,538.9,10606.25,8.495051141391302,2022-06-05 10:06:58,0.6805555555555555,1.9402554566946664
Main,61,True,True,1,24,Graphic designer,True,0.75,2.3561944901923457,538.9,3906.5416666666665,8.262685620765671,2022-06-05 10:06:58,0.8125,2.245927859731928
Main,62,False,True,1,24,Non-designer,False,0.9166666666666666,2.8797932657906453,188.9,3644.1666666666665,8.172113913488113,2022-06-05 06:16:20,0.9270833333333333,2.594742484633123
Main,62,True,False,1,24,Non-designer,False,0.6666666666666666,2.094395102393196,188.9,3824.9583333333335,8.221399234387562,2022-06-05 06:16:20,0.75,2.0943951023931953
Main,62,True,True,1,24,Non-designer,False,0.6666666666666666,2.094395102393196,188.9,3696.25,8.175229570497004,2022-06-05 06:16:20,0.7777777777777778,2.1598272970111707
Main,63,False,True,1,24,Non-designer,False,0.9583333333333334,3.01069295969022,150.0,2992.7916666666665,7.992869119195231,2022-06-05 05:39:27,0.9583333333333333,2.7304547912674453
Main,63,True,False,1,24,Non-designer,False,0.5833333333333334,1.8325957145940464,150.0,3099.0833333333335,8.032308647993977,2022-06-05 05:39:27,0.5833333333333333,1.7382444060145856
Main,63,True,True,1,24,Non-designer,False,0.75,2.3561944901923457,150.0,3093.8333333333335,8.027039579976222,2022-06-05 05:39:27,0.7499999999999999,2.0943951023931953
Main,64,False,True,1,24,Non-designer,False,0.8333333333333334,2.6179938779914953,383.3,3348.2916666666665,8.108393140556364,2022-06-05 03:24:30,0.8333333333333333,2.3005239830218627
Main,64,True,False,1,24,Non-designer,False,0.5833333333333334,1.8325957145940464,383.3,3637.7916666666665,8.185052220901467,2022-06-05 03:24:30,0.5833333333333333,1.7382444060145856
Main,64,True,True,1,24,Non-designer,False,0.7083333333333334,2.2252947962927707,383.3,3431.0833333333335,8.131848869232334,2022-06-05 03:24:30,0.7083333333333333,2.000571758099424
Main,65,False,True,1,24,Non-designer,False,0.9583333333333334,3.01069295969022,188.9,3091.25,8.031660110716468,2022-06-04 23:57:00,0.9583333333333335,2.7304547912674466
Main,65,True,False,1,24,Non-designer,False,0.7083333333333334,2.2252947962927707,188.9,4076.7916666666665,8.224731762345629,2022-06-04 23:57:00,0.7083333333333333,2.000571758099424
Main,65,True,True,1,24,Non-designer,False,0.6666666666666666,2.094395102393196,188.9,3516.4166666666665,8.150041497358893,2022-06-04 23:57:00,0.6666666666666666,1.9106332362490186
Main,66,False,True,1,24,Other designer,True,0.7916666666666666,2.4870941840919207,227.8,3491.2083333333335,8.149419755343748,2022-06-04 21:01:57,0.8333333333333333,2.3005239830218627
Main,66,True,False,1,24,Other designer,True,0.75,2.3561944901923457,227.8,3866.7083333333335,8.244829091536158,2022-06-04 21:01:57,0.7673611111111112,2.1349753194817476
Main,66,True,True,1,24,Other designer,True,0.875,2.7488935718910703,227.8,3828.125,8.234392650343489,2022-06-04 21:01:57,0.9201388888888887,2.568591703465931
Main,67,False,True,1,24,Non-designer,False,0.875,2.7488935718910703,150.0,2836.7083333333335,7.934528583987604,2022-06-04 20:40:34,0.9444444444444444,2.6657104039293764
Main,67,True,False,1,24,Non-designer,False,0.6666666666666666,2.094395102393196,150.0,2885.375,7.952032473499535,2022-06-04 20:40:34,0.7499999999999999,2.0943951023931953
Main,67,True,True,1,24,Non-designer,False,0.6666666666666666,2.094395102393196,150.0,2869.3333333333335,7.945268250502178,2022-06-04 20:40:34,0.6388888888888888,1.8522764000257417
Main,68,False,True,1,24,Typographer,True,0.9166666666666666,2.8797932657906453,188.9,2799.9583333333335,7.925623374601166,2022-06-04 20:14:21,0.9930555555555556,2.974732480368565
Main,68,True,False,1,24,Typographer,True,0.7916666666666666,2.4870941840919207,188.9,3013.5833333333335,7.997268358220068,2022-06-04 20:14:21,0.8125,2.245927859731928
Main,68,True,True,1,24,Typographer,True,0.7916666666666666,2.4870941840919207,188.9,2766.4583333333335,7.9117776774901385,2022-06-04 20:14:21,0.8993055555555556,2.4957802891906757
Main,69,False,True,1,24,Letter designer,True,0.9166666666666666,2.8797932657906453,188.9,3403.0416666666665,8.101151569440193,2022-06-04 19:48:24,0.96875,2.7861714518995697
Main,69,True,False,1,24,Letter designer,True,0.7916666666666666,2.4870941840919207,188.9,3675.7083333333335,8.178634334321748,2022-06-04 19:48:24,0.8611111111111112,2.3778061571919618
Main,69,True,True,1,24,Letter designer,True,0.7916666666666666,2.4870941840919207,188.9,3462.25,8.116172945599091,2022-06-04 19:48:24,0.8541666666666667,2.3579306047919957
Main,70,False,True,1,24,Non-designer,False,0.9166666666666666,2.8797932657906453,227.8,3360.3333333333335,8.092146882354383,2022-06-04 19:38:05,0.9166666666666667,2.555907110132642
Main,70,True,False,1,24,Non-designer,False,0.625,1.9634954084936211,227.8,3234.5833333333335,8.078922767097533,2022-06-04 19:38:05,0.625,1.8234765819369754
Main,70,True,True,1,24,Non-designer,False,0.7083333333333334,2.2252947962927707,227.8,3299.9166666666665,8.092522745711033,2022-06-04 19:38:05,0.7395833333333334,2.070501367554261
Main,71,False,True,1,24,Non-designer,False,0.9583333333333334,3.01069295969022,227.8,3284.9583333333335,8.08787523233685,2022-06-04 19:33:21,0.9965277777777777,3.02367321572185
Main,71,True,False,1,24,Non-designer,False,0.6666666666666666,2.094395102393196,227.8,3454.5833333333335,8.137327854258555,2022-06-04 19:33:21,0.6458333333333335,1.8667651301538284
Main,71,True,True,1,24,Non-designer,False,0.75,2.3561944901923457,227.8,3465.625,8.136389669957842,2022-06-04 19:33:21,0.6666666666666666,1.9106332362490186
Main,72,False,True,1,24,Other designer,True,0.9166666666666666,2.8797932657906453,383.3,4000.25,8.261358465143072,2022-06-04 19:22:00,0.9097222222222222,2.5312373852366266
Main,72,True,False,1,24,Other designer,True,0.4583333333333333,1.4398966328953218,383.3,3620.25,8.179529695713764,2022-06-04 19:22:00,0.44791666666666663,1.4664403542064428
Main,72,True,True,1,24,Other designer,True,0.7083333333333334,2.2252947962927707,383.3,3348.9166666666665,8.110670023542388,2022-06-04 19:22:00,0.7222222222222222,2.031350318476219
Main,73,False,True,1,24,Graphic designer,True,0.875,2.7488935718910703,422.2,4034.9583333333335,8.29195710552832,2022-06-04 18:33:12,0.875,2.4188584057763776
Main,73,True,False,1,24,Graphic designer,True,0.5833333333333334,1.8325957145940464,422.2,4197.583333333333,8.332194678458025,2022-06-04 18:33:12,0.5833333333333333,1.7382444060145856
Main,73,True,True,1,24,Graphic designer,True,0.5,1.5707963267948966,422.2,4336.708333333333,8.351125966386384,2022-06-04 18:33:12,0.5,1.5707963267948968
Main,74,False,True,1,24,Other designer,True,0.9166666666666666,2.8797932657906453,188.9,2841.1666666666665,7.9493563736112,2022-06-04 18:12:59,0.9166666666666667,2.555907110132642
Main,74,True,False,1,24,Other designer,True,0.5833333333333334,1.8325957145940464,188.9,3336.0,8.089445663683303,2022-06-04 18:12:59,0.6527777777777778,1.8813181614606647
Main,74,True,True,1,24,Other designer,True,0.7916666666666666,2.4870941840919207,188.9,3164.2916666666665,8.040763213521457,2022-06-04 18:12:59,0.8472222222222222,2.3384438482029277
Main,75,False,True,1,24,Graphic designer,True,0.9166666666666666,2.8797932657906453,266.7,3350.75,8.095523285537547,2022-06-04 18:11:57,0.9375,2.6362321433056364
Main,75,True,False,1,24,Graphic designer,True,0.875,2.7488935718910703,266.7,3485.875,8.145451330537218,2022-06-04 18:11:57,0.9062500000000001,2.519224165034773
Main,75,True,True,1,24,Graphic designer,True,0.7916666666666666,2.4870941840919207,266.7,3535.5,8.1588435962358,2022-06-04 18:11:57,0.78125,2.168202743440247
Main,76,False,True,1,24,Non-designer,False,0.875,2.7488935718910703,500.0,3152.75,8.04833895473198,2022-06-04 17:49:58,0.9791666666666667,2.8519056595926737
Main,76,True,False,1,24,Non-designer,False,0.125,0.39269908169872414,500.0,3087.4166666666665,8.018155580153755,2022-06-04 17:49:58,0.125,0.7227342478134157
Main,76,True,True,1,24,Non-designer,False,0.5416666666666666,1.7016960206944713,500.0,2976.4166666666665,7.99299825046607,2022-06-04 17:49:58,0.5416666666666666,1.6542264134055116
Main,77,False,True,1,24,Typographer,True,0.9166666666666666,2.8797932657906453,150.0,3021.875,7.996528364175686,2022-06-04 17:49:50,1.0,3.141592653589793
Main,77,True,False,1,24,Typographer,True,0.875,2.7488935718910703,150.0,3274.2916666666665,8.075516976148293,2022-06-04 17:49:50,0.9097222222222222,2.5312373852366266
Main,77,True,True,1,24,Typographer,True,0.6666666666666666,2.094395102393196,150.0,3159.0416666666665,8.04913526093927,2022-06-04 17:49:50,0.6875,1.9551931012905357
Main,78,False,True,1,24,Graphic designer,True,0.8333333333333334,2.6179938779914953,266.7,3459.6666666666665,8.136397373974486,2022-06-04 17:01:01,0.8402777777777777,2.3193169289450974
Main,78,True,False,1,24,Graphic designer,True,0.625,1.9634954084936211,266.7,3347.0,8.107122239930092,2022-06-04 17:01:01,0.6944444444444444,1.9702215666754914
Main,78,True,True,1,24,Graphic designer,True,0.6666666666666666,2.094395102393196,266.7,3365.7916666666665,8.110812757193164,2022-06-04 17:01:01,0.75,2.0943951023931953
Main,79,False,True,1,24,Non-designer,False,0.9583333333333334,3.01069295969022,577.8,3422.4166666666665,8.134935911335264,2022-06-04 16:54:42,0.9583333333333333,2.7304547912674453
Main,79,True,False,1,24,Non-designer,False,0.625,1.9634954084936211,577.8,3713.5416666666665,8.208863909641929,2022-06-04 16:54:42,0.625,1.8234765819369754
Main,79,True,True,1,24,Non-designer,False,0.5416666666666666,1.7016960206944713,577.8,3887.2083333333335,8.23273319115811,2022-06-04 16:54:42,0.5416666666666666,1.6542264134055116
Main,80,False,True,1,24,Non-designer,False,0.625,1.9634954084936211,305.6,3275.625,8.076940369419903,2022-06-04 16:35:07,0.6701388888888888,1.9180086146897783
Main,80,True,False,1,24,Non-designer,False,0.5416666666666666,1.7016960206944713,305.6,3118.1666666666665,8.041638969171776,2022-06-04 16:35:07,0.5416666666666666,1.6542264134055116
Main,80,True,True,1,24,Non-designer,False,0.5,1.5707963267948966,305.6,3270.9166666666665,8.082575112713714,2022-06-04 16:35:07,0.4340277777777778,1.4384660074145306
Main,81,False,True,1,24,Graphic designer,True,0.9166666666666666,2.8797932657906453,188.9,3306.6666666666665,8.078564484681023,2022-06-04 16:34:34,0.9583333333333333,2.7304547912674453
Main,81,True,False,1,24,Graphic designer,True,0.5416666666666666,1.7016960206944713,188.9,3868.8333333333335,8.207392184104073,2022-06-04 16:34:34,0.6284722222222222,1.830655488311901
Main,81,True,True,1,24,Graphic designer,True,0.75,2.3561944901923457,188.9,4244.541666666667,8.261647038179968,2022-06-04 16:34:34,0.7777777777777778,2.1598272970111707
Main,82,False,True,1,24,Graphic designer,True,0.6666666666666666,2.094395102393196,188.9,2898.3333333333335,7.966920358290776,2022-06-04 15:39:21,0.861111111111111,2.3778061571919618
Main,82,True,False,1,24,Graphic designer,True,0.6666666666666666,2.094395102393196,188.9,3145.25,8.041555162771454,2022-06-04 15:39:21,0.6840277777777779,1.947713238019257
Main,82,True,True,1,24,Graphic designer,True,0.9166666666666666,2.8797932657906453,188.9,3122.7083333333335,8.03110437663228,2022-06-04 15:39:21,0.923611111111111,2.581530740897968
Main,83,False,True,1,24,Other designer,True,0.9166666666666666,2.8797932657906453,227.8,3358.9583333333335,8.070991636230403,2022-06-04 15:38:26,1.0,3.141592653589793
Main,83,True,False,1,24,Other designer,True,0.7083333333333334,2.2252947962927707,227.8,3319.125,8.073164935049537,2022-06-04 15:38:26,0.7152777777777777,2.0159045437472423
Main,83,True,True,1,24,Other designer,True,0.7916666666666666,2.4870941840919207,227.8,3295.9166666666665,8.079160194738845,2022-06-04 15:38:26,0.71875,2.023612921539822
Main,84,False,True,1,24,Graphic designer,True,0.9583333333333334,3.01069295969022,227.8,3633.5416666666665,8.180146082620269,2022-06-04 14:52:57,1.0,3.141592653589793
Main,84,True,False,1,24,Graphic designer,True,0.7083333333333334,2.2252947962927707,227.8,3812.25,8.213061219999997,2022-06-04 14:52:57,0.7743055555555556,2.1514984614969883
Main,84,True,True,1,24,Graphic designer,True,0.875,2.7488935718910703,227.8,3705.5833333333335,8.187611417458564,2022-06-04 14:52:57,0.8680555555555556,2.398103111175434
Main,85,False,True,1,24,Non-designer,False,0.9583333333333334,3.01069295969022,188.9,3189.7083333333335,8.058548803078155,2022-06-04 14:36:15,0.9861111111111112,2.905341347605024
Main,85,True,False,1,24,Non-designer,False,0.5833333333333334,1.8325957145940464,188.9,3608.8333333333335,8.165852466440649,2022-06-04 14:36:15,0.5486111111111112,1.6681723641760142
Main,85,True,True,1,24,Non-designer,False,0.7083333333333334,2.2252947962927707,188.9,3366.9166666666665,8.106470222919583,2022-06-04 14:36:15,0.6527777777777778,1.8813181614606647
Main,86,False,True,1,24,Graphic designer,True,0.875,2.7488935718910703,305.6,3075.5833333333335,8.003062797493468,2022-06-04 14:30:50,0.875,2.4188584057763776
Main,86,True,False,1,24,Graphic designer,True,0.6666666666666666,2.094395102393196,305.6,2915.7083333333335,7.962904999536744,2022-06-04 14:30:50,0.6840277777777777,1.9477132380192566
Main,86,True,True,1,24,Graphic designer,True,0.6666666666666666,2.094395102393196,305.6,2874.75,7.9494891423307585,2022-06-04 14:30:50,0.6875,1.9551931012905357
Main,87,False,True,1,24,Graphic designer,True,0.9583333333333334,3.01069295969022,383.3,3054.9583333333335,8.002640382594487,2022-06-04 13:32:02,1.0,3.141592653589793
Main,87,True,False,1,24,Graphic designer,True,0.75,2.3561944901923457,383.3,2806.9166666666665,7.933646176666415,2022-06-04 13:32:02,0.7916666666666666,2.1936229122068998
Main,87,True,True,1,24,Graphic designer,True,0.75,2.3561944901923457,383.3,2912.3333333333335,7.965615448426885,2022-06-04 13:32:02,0.75,2.0943951023931953
Main,88,False,True,1,24,Graphic designer,True,0.9166666666666666,2.8797932657906453,305.6,2938.75,7.977301973393107,2022-06-04 12:35:22,0.9097222222222221,2.531237385236626
Main,88,True,False,1,24,Graphic designer,True,0.375,1.1780972450961724,305.6,3431.9166666666665,8.101915541480478,2022-06-04 12:35:22,0.43749999999999994,1.4454684956268309
Main,88,True,True,1,24,Graphic designer,True,0.75,2.3561944901923457,305.6,3223.4166666666665,8.066139552527519,2022-06-04 12:35:22,0.8090277777777777,2.237063192983825
Main,89,False,True,1,24,Graphic designer,True,0.9583333333333334,3.01069295969022,150.0,2746.4583333333335,7.9013284928573855,2022-06-04 11:52:51,0.9340277777777778,2.6220685715193306
Main,89,True,False,1,24,Graphic designer,True,0.875,2.7488935718910703,150.0,2844.125,7.942233543907117,2022-06-04 11:52:51,0.9131944444444443,2.5434605868606863
Main,89,True,True,1,24,Graphic designer,True,0.625,1.9634954084936211,150.0,2767.0416666666665,7.92215556675493,2022-06-04 11:52:51,0.7083333333333334,2.0005717580994244
Main,90,False,True,1,24,Non-designer,False,0.9166666666666666,2.8797932657906453,150.0,3498.0,8.120181355924364,2022-06-04 11:09:58,0.9791666666666667,2.8519056595926737
Main,90,True,False,1,24,Non-designer,False,0.625,1.9634954084936211,150.0,3675.6666666666665,8.18714753150261,2022-06-04 11:09:58,0.625,1.8234765819369754
Main,90,True,True,1,24,Non-designer,False,0.7083333333333334,2.2252947962927707,150.0,3805.875,8.214603620220961,2022-06-04 11:09:58,0.7152777777777778,2.0159045437472423
Main,91,False,True,1,24,Non-designer,False,0.875,2.7488935718910703,383.3,3100.5833333333335,8.026711930602623,2022-06-04 10:41:48,1.0,3.141592653589793
Main,91,True,False,1,24,Non-designer,False,0.5,1.5707963267948966,383.3,3173.5416666666665,8.057089671594069,2022-06-04 10:41:48,0.4375,1.4454684956268313
Main,91,True,True,1,24,Non-designer,False,0.6666666666666666,2.094395102393196,383.3,3165.9583333333335,8.054858073127791,2022-06-04 10:41:48,0.736111111111111,2.062606421360341
Main,92,False,True,1,24,Non-designer,False,1.0,3.141592653589795,227.8,3336.375,8.082574460999295,2022-06-04 10:04:17,1.0,3.141592653589793
Main,92,True,False,1,24,Non-designer,False,0.7083333333333334,2.2252947962927707,227.8,3337.625,8.104906782084399,2022-06-04 10:04:17,0.8159722222222222,2.2548558961444116
Main,92,True,True,1,24,Non-designer,False,0.7916666666666666,2.4870941840919207,227.8,4615.791666666667,8.23747855033034,2022-06-04 10:04:17,0.8993055555555556,2.4957802891906757
Main,93,False,True,1,24,Non-designer,False,0.75,2.3561944901923457,500.0,4180.083333333333,8.317022863263764,2022-06-04 09:48:50,0.8993055555555555,2.4957802891906757
Main,93,True,False,1,24,Non-designer,False,0.5833333333333334,1.8325957145940464,500.0,4433.666666666667,8.368565174418787,2022-06-04 09:48:50,0.5902777777777778,1.7523475875919814
Main,93,True,True,1,24,Non-designer,False,0.75,2.3561944901923457,500.0,4563.958333333333,8.402706452165143,2022-06-04 09:48:50,0.75,2.0943951023931953
Main,94,False,True,1,24,Non-designer,False,0.875,2.7488935718910703,150.0,3824.9166666666665,8.161514405236096,2022-06-04 09:30:10,0.9131944444444444,2.5434605868606863
Main,94,True,False,1,24,Non-designer,False,0.75,2.3561944901923457,150.0,4289.125,8.241526807634871,2022-06-04 09:30:10,0.7708333333333333,2.1432148988877167
Main,94,True,True,1,24,Non-designer,False,0.7916666666666666,2.4870941840919207,150.0,3422.375,8.099833275171951,2022-06-04 09:30:10,0.8194444444444446,2.2638494083748695
Main,95,False,True,1,24,Non-designer,False,0.75,2.3561944901923457,266.7,3058.6666666666665,8.018693534715899,2022-06-04 09:29:24,0.8333333333333333,2.3005239830218627
Main,95,True,False,1,24,Non-designer,False,0.6666666666666666,2.094395102393196,266.7,3319.2083333333335,8.094505084467583,2022-06-04 09:29:24,0.7187500000000001,2.0236129215398226
Main,95,True,True,1,24,Non-designer,False,0.7083333333333334,2.2252947962927707,266.7,3088.5833333333335,8.029103811547326,2022-06-04 09:29:24,0.763888888888889,2.126778479315439
Main,96,False,True,1,24,Non-designer,False,0.875,2.7488935718910703,383.3,3135.9583333333335,8.047105851783952,2022-06-04 09:23:32,0.8993055555555556,2.4957802891906757
Main,96,True,False,1,24,Non-designer,False,0.7083333333333334,2.2252947962927707,383.3,3311.125,8.096397899381122,2022-06-04 09:23:32,0.6458333333333333,1.8667651301538277
Main,96,True,True,1,24,Non-designer,False,0.7083333333333334,2.2252947962927707,383.3,3655.7083333333335,8.17958123095901,2022-06-04 09:23:32,0.75,2.0943951023931953
Main,97,False,True,1,24,Non-designer,False,1.0,3.141592653589795,422.2,3342.625,8.10281352160719,2022-06-04 08:39:44,1.0,3.141592653589793
Main,97,True,False,1,24,Non-designer,False,0.7083333333333334,2.2252947962927707,422.2,3446.1666666666665,8.13148671444978,2022-06-04 08:39:44,0.75,2.0943951023931953
Main,97,True,True,1,24,Non-designer,False,0.75,2.3561944901923457,422.2,3293.6666666666665,8.090692615890221,2022-06-04 08:39:44,0.7222222222222222,2.031350318476219
Main,98,False,True,1,24,Non-designer,False,0.875,2.7488935718910703,344.4,3611.375,8.176146968971365,2022-06-04 08:24:03,0.8958333333333334,2.4843285003442768
Main,98,True,False,1,24,Non-designer,False,0.5416666666666666,1.7016960206944713,344.4,3927.7916666666665,8.253699892150985,2022-06-04 08:24:03,0.5868055555555556,1.7452916137520267
Main,98,True,True,1,24,Non-designer,False,0.5416666666666666,1.7016960206944713,344.4,4015.4583333333335,8.255779018323926,2022-06-04 08:24:03,0.59375,1.7594127129703006
Main,99,False,True,1,24,Letter designer,True,0.875,2.7488935718910703,188.9,3533.4166666666665,8.146446781482656,2022-06-04 07:54:12,0.9583333333333333,2.7304547912674453
Main,99,True,False,1,24,Letter designer,True,0.7083333333333334,2.2252947962927707,188.9,3659.4166666666665,8.141679168146817,2022-06-04 07:54:12,0.75,2.0943951023931953
Main,99,True,True,1,24,Letter designer,True,0.8333333333333334,2.6179938779914953,188.9,3797.1666666666665,8.175561627812028,2022-06-04 07:54:12,0.8958333333333334,2.4843285003442768
Main,100,False,True,1,24,Non-designer,False,0.875,2.7488935718910703,266.7,3140.125,8.042068559037428,2022-06-04 07:22:25,0.9062499999999999,2.519224165034772
Main,100,True,False,1,24,Non-designer,False,0.5,1.5707963267948966,266.7,3605.4166666666665,8.155928665940392,2022-06-04 07:22:25,0.5069444444444444,1.5846856622531866
Main,100,True,True,1,24,Non-designer,False,0.7083333333333334,2.2252947962927707,266.7,3319.0416666666665,8.090088800229681,2022-06-04 07:22:25,0.7326388888888888,2.0547447269251324
Main,101,False,True,1,24,Non-designer,False,0.875,2.7488935718910703,266.7,4061.5,8.275475871145217,2022-06-04 07:19:24,0.9444444444444444,2.6657104039293764
Main,101,True,False,1,24,Non-designer,False,0.625,1.9634954084936211,266.7,3888.5833333333335,8.247487293721692,2022-06-04 07:19:24,0.6319444444444445,1.8378481233103474
Main,101,True,True,1,24,Non-designer,False,0.625,1.9634954084936211,266.7,4073.0833333333335,8.262090724126942,2022-06-04 07:19:24,0.7222222222222221,2.0313503184762185
Main,102,False,True,1,24,Non-designer,False,0.875,2.7488935718910703,150.0,3873.7916666666665,8.245080613356329,2022-06-04 07:07:37,1.0,3.141592653589793
Main,102,True,False,1,24,Non-designer,False,0.5833333333333334,1.8325957145940464,150.0,4026.125,8.276579320449608,2022-06-04 07:07:37,0.6597222222222222,1.8959394827657874
Main,102,True,True,1,24,Non-designer,False,0.7916666666666666,2.4870941840919207,150.0,4156.333333333333,8.290567866770527,2022-06-04 07:07:37,0.8611111111111112,2.3778061571919618
Main,103,False,True,1,24,Non-designer,False,0.9166666666666666,2.8797932657906453,266.7,3573.5833333333335,8.15338058913255,2022-06-04 07:07:22,0.9895833333333333,2.9371124546212584
Main,103,True,False,1,24,Non-designer,False,0.75,2.3561944901923457,266.7,3548.875,8.155081997577142,2022-06-04 07:07:22,0.7986111111111109,2.210829715816664
Main,103,True,True,1,24,Non-designer,False,0.7083333333333334,2.2252947962927707,266.7,3380.75,8.117023164616054,2022-06-04 07:07:22,0.7708333333333333,2.1432148988877167
Main,104,False,True,1,24,Non-designer,False,0.9166666666666666,2.8797932657906453,422.2,3361.9583333333335,8.108666798008333,2022-06-04 07:06:50,0.9166666666666665,2.5559071101326416
Main,104,True,False,1,24,Non-designer,False,0.6666666666666666,2.094395102393196,422.2,3308.875,8.099407909387763,2022-06-04 07:06:50,0.6666666666666665,1.9106332362490182
Main,104,True,True,1,24,Non-designer,False,0.75,2.3561944901923457,422.2,3193.0,8.065765506599009,2022-06-04 07:06:50,0.75,2.0943951023931953
Main,105,False,True,1,24,Non-designer,False,0.8333333333333334,2.6179938779914953,188.9,3011.0416666666665,8.001793209993417,2022-06-04 07:00:12,0.8541666666666666,2.3579306047919952
Main,105,True,False,1,24,Non-designer,False,0.75,2.3561944901923457,188.9,3293.5416666666665,8.088803596210212,2022-06-04 07:00:12,0.7708333333333334,2.143214898887717
Main,105,True,True,1,24,Non-designer,False,0.5416666666666666,1.7016960206944713,188.9,3457.7083333333335,8.126187655123912,2022-06-04 07:00:12,0.6493055555555555,1.874033362303943
Main,106,False,True,1,24,Non-designer,False,0.9583333333333334,3.01069295969022,227.8,3035.3333333333335,8.01066846170017,2022-06-04 06:44:46,0.9965277777777777,3.02367321572185
Main,106,True,False,1,24,Non-designer,False,0.7916666666666666,2.4870941840919207,227.8,3330.5416666666665,8.092646977617427,2022-06-04 06:44:46,0.78125,2.168202743440247
Main,106,True,True,1,24,Non-designer,False,0.7916666666666666,2.4870941840919207,227.8,3156.7083333333335,8.045762310194684,2022-06-04 06:44:46,0.8402777777777777,2.3193169289450974
Main,107,False,True,1,24,Non-designer,False,0.7916666666666666,2.4870941840919207,188.9,3078.25,8.02571444702129,2022-06-04 06:38:53,0.8333333333333333,2.3005239830218627
Main,107,True,False,1,24,Non-designer,False,0.7083333333333334,2.2252947962927707,188.9,3286.9583333333335,8.074367938010544,2022-06-04 06:38:53,0.7256944444444444,2.03911753334995
Main,107,True,True,1,24,Non-designer,False,0.7916666666666666,2.4870941840919207,188.9,3067.625,8.018896861475314,2022-06-04 06:38:53,0.8263888888888888,2.282041790980738
Main,108,False,True,1,24,Graphic designer,True,0.9166666666666666,2.8797932657906453,227.8,3873.4583333333335,8.190659458084417,2022-06-04 06:32:37,0.9062499999999999,2.519224165034772
Main,108,True,False,1,24,Graphic designer,True,0.8333333333333334,2.6179938779914953,227.8,3918.0416666666665,8.234327319095277,2022-06-04 06:32:37,0.8333333333333333,2.3005239830218627
Main,108,True,True,1,24,Graphic designer,True,0.8333333333333334,2.6179938779914953,227.8,3442.1666666666665,8.108565498279157,2022-06-04 06:32:37,0.8125,2.245927859731928
Main,109,False,True,1,24,Non-designer,False,0.8333333333333334,2.6179938779914953,188.9,3350.2916666666665,8.096321495041504,2022-06-04 06:20:37,0.9583333333333333,2.7304547912674453
Main,109,True,False,1,24,Non-designer,False,0.75,2.3561944901923457,188.9,3423.0833333333335,8.117013467078447,2022-06-04 06:20:37,0.7847222222222223,2.176626189857009
Main,109,True,True,1,24,Non-designer,False,0.7083333333333334,2.2252947962927707,188.9,3413.7083333333335,8.118711777512965,2022-06-04 06:20:37,0.7395833333333333,2.0705013675542605
Main,110,False,True,1,24,Non-designer,False,0.8333333333333334,2.6179938779914953,344.4,3557.625,8.170821482545492,2022-06-04 06:18:40,0.8680555555555556,2.398103111175434
Main,110,True,False,1,24,Non-designer,False,0.5833333333333334,1.8325957145940464,344.4,3888.25,8.248540704754022,2022-06-04 06:18:40,0.6527777777777778,1.8813181614606647
Main,110,True,True,1,24,Non-designer,False,0.75,2.3561944901923457,344.4,3753.3333333333335,8.218412596050216,2022-06-04 06:18:40,0.7083333333333334,2.0005717580994244
Main,111,False,True,1,24,Non-designer,False,0.75,2.3561944901923457,344.4,3177.875,8.056757007694044,2022-06-04 06:00:47,0.9166666666666667,2.555907110132642
Main,111,True,False,1,24,Non-designer,False,0.8333333333333334,2.6179938779914953,344.4,3443.5,8.128253054950479,2022-06-04 06:00:47,0.8402777777777777,2.3193169289450974
Main,111,True,True,1,24,Non-designer,False,0.8333333333333334,2.6179938779914953,344.4,3508.6666666666665,8.14221379677379,2022-06-04 06:00:47,0.8368055555555556,2.309880217837075
Main,112,False,True,1,24,Non-designer,False,0.9583333333333334,3.01069295969022,266.7,3711.4166666666665,8.198946608727102,2022-06-04 05:58:54,1.0,3.141592653589793
Main,112,True,False,1,24,Non-designer,False,0.6666666666666666,2.094395102393196,266.7,3749.0,8.218223278253978,2022-06-04 05:58:54,0.638888888888889,1.8522764000257417
Main,112,True,True,1,24,Non-designer,False,0.6666666666666666,2.094395102393196,266.7,3591.5416666666665,8.177471108274151,2022-06-04 05:58:54,0.75,2.0943951023931953
Main,113,False,True,1,24,Non-designer,False,0.9166666666666666,2.8797932657906453,344.4,3478.0833333333335,8.145125311505904,2022-06-04 05:56:17,0.9131944444444443,2.5434605868606863
Main,113,True,False,1,24,Non-designer,False,0.625,1.9634954084936211,344.4,3658.0416666666665,8.191625340365185,2022-06-04 05:56:17,0.6944444444444444,1.9702215666754914
Main,113,True,True,1,24,Non-designer,False,0.7083333333333334,2.2252947962927707,344.4,3591.125,8.170367225360947,2022-06-04 05:56:17,0.7083333333333333,2.000571758099424
Main,114,False,True,1,24,Letter designer,True,0.75,2.3561944901923457,266.7,3050.5,8.011322091554181,2022-06-04 05:55:53,0.75,2.0943951023931953
Main,114,True,False,1,24,Letter designer,True,0.75,2.3561944901923457,266.7,3188.7083333333335,8.046814696327251,2022-06-04 05:55:53,0.75,2.0943951023931953
Main,114,True,True,1,24,Letter designer,True,0.7083333333333334,2.2252947962927707,266.7,3463.3333333333335,8.12699624888907,2022-06-04 05:55:53,0.7083333333333334,2.0005717580994244
Main,115,False,True,1,24,Non-designer,False,0.875,2.7488935718910703,422.2,3422.9583333333335,8.130492843895222,2022-06-04 05:42:47,0.9583333333333333,2.7304547912674453
Main,115,True,False,1,24,Non-designer,False,0.3333333333333333,1.0471975511965976,422.2,3495.25,8.14660688956827,2022-06-04 05:42:47,0.3194444444444445,1.201337196895127
Main,115,True,True,1,24,Non-designer,False,0.9166666666666666,2.8797932657906453,422.2,3649.5,8.18811873305845,2022-06-04 05:42:47,0.9791666666666667,2.8519056595926737
Main,116,False,True,1,24,Non-designer,False,0.7916666666666666,2.4870941840919207,266.7,3532.4166666666665,8.158300207392896,2022-06-04 05:31:20,0.90625,2.519224165034773
Main,116,True,False,1,24,Non-designer,False,0.5,1.5707963267948966,266.7,3801.8333333333335,8.229771118496346,2022-06-04 05:31:20,0.5416666666666666,1.6542264134055116
Main,116,True,True,1,24,Non-designer,False,0.6666666666666666,2.094395102393196,266.7,3764.1666666666665,8.215241897323098,2022-06-04 05:31:20,0.7534722222222221,2.1024325913382205
Main,117,False,True,1,24,Graphic designer,True,0.9583333333333334,3.01069295969022,227.8,2928.9583333333335,7.9810586878178995,2022-06-04 05:30:18,0.9583333333333333,2.7304547912674453
Main,117,True,False,1,24,Graphic designer,True,0.6666666666666666,2.094395102393196,227.8,3065.625,8.017184254969846,2022-06-04 05:30:18,0.6875,1.9551931012905357
Main,117,True,True,1,24,Graphic designer,True,0.7916666666666666,2.4870941840919207,227.8,2943.875,7.986781430388469,2022-06-04 05:30:18,0.7916666666666667,2.1936229122068998
Main,118,False,True,1,24,Non-designer,False,0.875,2.7488935718910703,305.6,3353.5416666666665,8.09616705767113,2022-06-04 05:22:05,0.875,2.4188584057763776
Main,118,True,False,1,24,Non-designer,False,0.6666666666666666,2.094395102393196,305.6,3211.4583333333335,8.066076643222273,2022-06-04 05:22:05,0.6388888888888888,1.8522764000257417
Main,118,True,True,1,24,Non-designer,False,0.625,1.9634954084936211,305.6,3055.5,8.021815204425817,2022-06-04 05:22:05,0.625,1.8234765819369754
Main,119,False,True,1,24,Other designer,True,0.9166666666666666,2.8797932657906453,383.3,3660.25,8.194849191583911,2022-06-04 05:20:27,0.9583333333333333,2.7304547912674453
Main,119,True,False,1,24,Other designer,True,0.625,1.9634954084936211,383.3,4130.75,8.310649264001649,2022-06-04 05:20:27,0.7916666666666666,2.1936229122068998
Main,119,True,True,1,24,Other designer,True,0.7083333333333334,2.2252947962927707,383.3,4285.208333333333,8.343992014573944,2022-06-04 05:20:27,0.75,2.0943951023931953
Main,120,False,True,1,24,Other designer,True,0.9583333333333334,3.01069295969022,227.8,3170.0416666666665,8.043609668727582,2022-06-04 05:06:17,0.9583333333333333,2.7304547912674453
Main,120,True,False,1,24,Other designer,True,0.8333333333333334,2.6179938779914953,227.8,3068.3333333333335,8.022103919244659,2022-06-04 05:06:17,0.8055555555555556,2.2282598831765403
Main,120,True,True,1,24,Other designer,True,0.8333333333333334,2.6179938779914953,227.8,3243.8333333333335,8.068065615948617,2022-06-04 05:06:17,0.8194444444444444,2.263849408374869
Main,121,False,True,1,24,Non-designer,False,0.9583333333333334,3.01069295969022,344.4,2559.5416666666665,7.841044807805151,2022-06-04 04:39:56,0.9583333333333333,2.7304547912674453
Main,121,True,False,1,24,Non-designer,False,0.6666666666666666,2.094395102393196,344.4,3432.4583333333335,8.038460659049735,2022-06-04 04:39:56,0.704861111111111,1.9929458574835694
Main,121,True,True,1,24,Non-designer,False,0.6666666666666666,2.094395102393196,344.4,2915.625,7.923826776709432,2022-06-04 04:39:56,0.6597222222222222,1.8959394827657874
Main,122,False,True,1,24,Non-designer,False,0.5,1.5707963267948966,500.0,3706.375,8.211755382220657,2022-06-04 04:19:43,0.5,1.5707963267948968
Main,122,True,False,1,24,Non-designer,False,0.4583333333333333,1.4398966328953218,500.0,3810.5,8.22963039406701,2022-06-04 04:19:43,0.45833333333333337,1.4873662401842818
Main,122,True,True,1,24,Non-designer,False,0.5416666666666666,1.7016960206944713,500.0,3775.4583333333335,8.225920401155998,2022-06-04 04:19:43,0.5416666666666667,1.6542264134055118
Main,123,False,True,1,24,Non-designer,False,0.9166666666666666,2.8797932657906453,344.4,3034.125,8.014672890253449,2022-06-04 04:05:49,0.954861111111111,2.7134109039834793
Main,123,True,False,1,24,Non-designer,False,0.6666666666666666,2.094395102393196,344.4,3414.5833333333335,8.118443396009566,2022-06-04 04:05:49,0.6736111111111112,1.92540373082181
Main,123,True,True,1,24,Non-designer,False,0.75,2.3561944901923457,344.4,3444.4166666666665,8.12681896577673,2022-06-04 04:05:49,0.7881944444444444,2.1850990793519585
Main,124,False,True,1,24,Non-designer,False,0.9583333333333334,3.01069295969022,383.3,3765.8333333333335,8.200706662609631,2022-06-04 04:05:47,0.9583333333333333,2.7304547912674453
Main,124,True,False,1,24,Non-designer,False,0.375,1.1780972450961724,383.3,3697.5,8.202157791183348,2022-06-04 04:05:47,0.3263888888888889,1.2161889227679836
Main,124,True,True,1,24,Non-designer,False,0.7083333333333334,2.2252947962927707,383.3,3902.6666666666665,8.249617145886356,2022-06-04 04:05:47,0.7743055555555556,2.1514984614969883
Main,125,False,True,1,24,Non-designer,False,0.875,2.7488935718910703,266.7,3035.7083333333335,8.012215593507078,2022-06-04 03:52:40,0.875,2.4188584057763776
Main,125,True,False,1,24,Non-designer,False,0.7916666666666666,2.4870941840919207,266.7,3523.0,8.07946453780373,2022-06-04 03:52:40,0.7916666666666667,2.1936229122068998
Main,125,True,True,1,24,Non-designer,False,0.6666666666666666,2.094395102393196,266.7,3071.4583333333335,8.00901686825904,2022-06-04 03:52:40,0.6666666666666667,1.9106332362490186
Main,126,False,True,1,24,Non-designer,False,0.875,2.7488935718910703,305.6,2798.9583333333335,7.9323642359420425,2022-06-04 02:29:27,0.875,2.4188584057763776
Main,126,True,False,1,24,Non-designer,False,0.6666666666666666,2.094395102393196,305.6,2866.7916666666665,7.95280778401213,2022-06-04 02:29:27,0.7465277777777777,2.0863947400932874
Main,126,True,True,1,24,Non-designer,False,0.7083333333333334,2.2252947962927707,305.6,3067.8333333333335,8.001680428194435,2022-06-04 02:29:27,0.7534722222222223,2.102432591338221
Main,127,False,True,1,24,Non-designer,False,0.875,2.7488935718910703,266.7,3629.2083333333335,8.183868403951763,2022-06-04 01:48:59,0.9895833333333333,2.9371124546212584
Main,127,True,False,1,24,Non-designer,False,0.4166666666666667,1.3089969389957472,266.7,4137.5,8.299665318464617,2022-06-04 01:48:59,0.4305555555555556,1.431456986037127
Main,127,True,True,1,24,Non-designer,False,0.625,1.9634954084936211,266.7,3911.9583333333335,8.25821117824332,2022-06-04 01:48:59,0.6875,1.9551931012905357
Main,128,False,True,1,24,Other designer,True,0.9166666666666666,2.8797932657906453,461.1,3282.9583333333335,8.087927257332192,2022-06-04 01:40:42,0.9166666666666665,2.5559071101326416
Main,128,True,False,1,24,Other designer,True,0.6666666666666666,2.094395102393196,461.1,3406.5416666666665,8.122020175309487,2022-06-04 01:40:42,0.6666666666666667,1.9106332362490186
Main,128,True,True,1,24,Other designer,True,0.7083333333333334,2.2252947962927707,461.1,3463.2916666666665,8.13836005521763,2022-06-04 01:40:42,0.7083333333333334,2.0005717580994244
Main,129,False,True,1,24,Non-designer,False,0.875,2.7488935718910703,266.7,3115.7916666666665,8.034528824719372,2022-06-04 01:16:30,0.8958333333333334,2.4843285003442768
Main,129,True,False,1,24,Non-designer,False,0.3333333333333333,1.0471975511965976,266.7,2948.0,7.98419620663379,2022-06-04 01:16:30,0.33333333333333337,1.230959417340775
Main,129,True,True,1,24,Non-designer,False,0.4583333333333333,1.4398966328953218,266.7,3173.2916666666665,8.044044345503819,2022-06-04 01:16:30,0.42361111111111116,1.4174178860560045
Main,130,False,True,1,24,Non-designer,False,0.8333333333333334,2.6179938779914953,266.7,3340.9166666666665,8.101137369715744,2022-06-04 01:03:24,0.8854166666666665,2.4509445850318703
Main,130,True,False,1,24,Non-designer,False,0.7083333333333334,2.2252947962927707,266.7,3778.5,8.217190174049032,2022-06-04 01:03:24,0.75,2.0943951023931953
Main,130,True,True,1,24,Non-designer,False,0.7083333333333334,2.2252947962927707,266.7,3803.9166666666665,8.20488315812869,2022-06-04 01:03:24,0.7361111111111112,2.0626064213603414
Main,131,False,True,1,24,Non-designer,False,1.0,3.141592653589795,383.3,3410.0,8.126133224282407,2022-06-04 00:54:31,1.0,3.141592653589793
Main,131,True,False,1,24,Non-designer,False,0.625,1.9634954084936211,383.3,3734.75,8.2095720378688,2022-06-04 00:54:31,0.6979166666666667,1.9777714524236538
Main,131,True,True,1,24,Non-designer,False,0.75,2.3561944901923457,383.3,3881.25,8.246203922964808,2022-06-04 00:54:31,0.8194444444444445,2.2638494083748695
Main,132,False,True,1,24,Graphic designer,True,0.9583333333333334,3.01069295969022,188.9,3447.25,8.132073791594573,2022-06-04 00:54:24,1.0,3.141592653589793
Main,132,True,False,1,24,Graphic designer,True,0.4583333333333333,1.4398966328953218,188.9,3857.5,8.236939122920338,2022-06-04 00:54:24,0.4756944444444444,1.5221660502959216
Main,132,True,True,1,24,Graphic designer,True,0.6666666666666666,2.094395102393196,188.9,3834.0416666666665,8.227812867009709,2022-06-04 00:54:24,0.6666666666666667,1.9106332362490186
Main,133,False,True,1,24,Non-designer,False,0.8333333333333334,2.6179938779914953,188.9,4098.541666666667,8.29014904596414,2022-06-04 00:30:23,0.9236111111111109,2.5815307408979673
Main,133,True,False,1,24,Non-designer,False,0.5833333333333334,1.8325957145940464,188.9,4289.791666666667,8.340508221217542,2022-06-04 00:30:23,0.6736111111111112,1.92540373082181
Main,133,True,True,1,24,Non-designer,False,0.7083333333333334,2.2252947962927707,188.9,4032.0,8.288274469801227,2022-06-04 00:30:23,0.6875,1.9551931012905357
Main,134,False,True,1,24,Other designer,True,0.9583333333333334,3.01069295969022,227.8,3171.9583333333335,8.046556589895541,2022-06-04 00:19:24,0.9965277777777777,3.02367321572185
Main,134,True,False,1,24,Other designer,True,0.7916666666666666,2.4870941840919207,227.8,3217.5416666666665,8.067857065205123,2022-06-04 00:19:24,0.7881944444444444,2.1850990793519585
Main,134,True,True,1,24,Other designer,True,0.7083333333333334,2.2252947962927707,227.8,3291.1666666666665,8.081118069285361,2022-06-04 00:19:24,0.7361111111111112,2.0626064213603414
Main,135,False,True,1,24,Non-designer,False,0.9166666666666666,2.8797932657906453,344.4,3754.875,8.207132965098802,2022-06-03 23:37:56,0.9513888888888887,2.6969810317966405
Main,135,True,False,1,24,Non-designer,False,0.75,2.3561944901923457,344.4,4173.416666666667,8.307149627589334,2022-06-03 23:37:56,0.8819444444444444,2.440114173836071
Main,135,True,True,1,24,Non-designer,False,0.75,2.3561944901923457,344.4,4024.0,8.258590908034739,2022-06-03 23:37:56,0.84375,2.3288370922211326
Main,136,False,True,1,24,Non-designer,False,0.8333333333333334,2.6179938779914953,266.7,3940.0416666666665,8.265044820566454,2022-06-03 23:32:47,1.0,3.141592653589793
Main,136,True,False,1,24,Non-designer,False,0.5833333333333334,1.8325957145940464,266.7,3761.375,8.21938396874195,2022-06-03 23:32:47,0.6250000000000001,1.8234765819369754
Main,136,True,True,1,24,Non-designer,False,0.6666666666666666,2.094395102393196,266.7,4140.833333333333,8.309849637817779,2022-06-03 23:32:47,0.7604166666666666,2.118623177761846
Main,137,False,True,1,24,Non-designer,False,0.9166666666666666,2.8797932657906453,344.4,3248.375,8.06993197034525,2022-06-03 23:19:33,0.9930555555555556,2.974732480368565
Main,137,True,False,1,24,Non-designer,False,0.5833333333333334,1.8325957145940464,344.4,3373.625,8.092160464174826,2022-06-03 23:19:33,0.7222222222222222,2.031350318476219
Main,137,True,True,1,24,Non-designer,False,0.7083333333333334,2.2252947962927707,344.4,3175.3333333333335,8.05210902061563,2022-06-03 23:19:33,0.6875,1.9551931012905357
Main,138,False,True,1,24,Non-designer,False,0.7916666666666666,2.4870941840919207,305.6,3495.9583333333335,8.141591350491273,2022-06-03 23:06:14,0.7916666666666666,2.1936229122068998
Main,138,True,False,1,24,Non-designer,False,0.7083333333333334,2.2252947962927707,305.6,3458.1666666666665,8.140028022807222,2022-06-03 23:06:14,0.7083333333333333,2.000571758099424
Main,138,True,True,1,24,Non-designer,False,0.6666666666666666,2.094395102393196,305.6,3283.75,8.092636077154713,2022-06-03 23:06:14,0.6666666666666666,1.9106332362490186
Main,139,False,True,1,24,Non-designer,False,0.875,2.7488935718910703,227.8,3534.8333333333335,8.156207080238985,2022-06-03 22:56:58,0.923611111111111,2.581530740897968
Main,139,True,False,1,24,Non-designer,False,0.7083333333333334,2.2252947962927707,227.8,3390.9166666666665,8.122962728483705,2022-06-03 22:56:58,0.6597222222222223,1.8959394827657876
Main,139,True,True,1,24,Non-designer,False,0.6666666666666666,2.094395102393196,227.8,3620.9166666666665,8.181474619268903,2022-06-03 22:56:58,0.6944444444444444,1.9702215666754914
Main,140,False,True,1,24,Non-designer,False,0.875,2.7488935718910703,461.1,3361.5833333333335,8.106411944866684,2022-06-03 22:52:51,0.9548611111111112,2.7134109039834793
Main,140,True,False,1,24,Non-designer,False,0.5833333333333334,1.8325957145940464,461.1,3220.0,8.070901077468605,2022-06-03 22:52:51,0.5868055555555556,1.7452916137520267
Main,140,True,True,1,24,Non-designer,False,0.625,1.9634954084936211,461.1,3356.1666666666665,8.110642484967865,2022-06-03 22:52:51,0.6284722222222222,1.830655488311901
Main,141,False,True,1,24,Non-designer,False,0.8333333333333334,2.6179938779914953,344.4,3545.625,8.166134285496197,2022-06-03 22:45:06,0.8819444444444444,2.440114173836071
Main,141,True,False,1,24,Non-designer,False,0.7916666666666666,2.4870941840919207,344.4,3919.125,8.24133545472504,2022-06-03 22:45:06,0.7951388888888888,2.2021992493074145
Main,141,True,True,1,24,Non-designer,False,0.875,2.7488935718910703,344.4,3469.2916666666665,8.142115784239516,2022-06-03 22:45:06,0.8854166666666666,2.4509445850318703
Main,142,False,True,1,24,Non-designer,False,0.9583333333333334,3.01069295969022,344.4,3703.7083333333335,8.20143329323577,2022-06-03 22:28:43,0.9930555555555556,2.974732480368565
Main,142,True,False,1,24,Non-designer,False,0.625,1.9634954084936211,344.4,3888.25,8.247045051958699,2022-06-03 22:28:43,0.6909722222222222,1.962695666109933
Main,142,True,True,1,24,Non-designer,False,0.6666666666666666,2.094395102393196,344.4,3769.7916666666665,8.225251801215451,2022-06-03 22:28:43,0.7569444444444444,2.110508255285102
Main,143,False,True,1,24,Non-designer,False,0.875,2.7488935718910703,227.8,2929.3333333333335,7.97567506045677,2022-06-03 22:22:59,0.9895833333333333,2.9371124546212584
Main,143,True,False,1,24,Non-designer,False,0.6666666666666666,2.094395102393196,227.8,3151.125,8.037747299864995,2022-06-03 22:22:59,0.7083333333333333,2.000571758099424
Main,143,True,True,1,24,Non-designer,False,0.7083333333333334,2.2252947962927707,227.8,3050.75,8.018353009177149,2022-06-03 22:22:59,0.7291666666666667,2.0469153877066932
Main,144,False,True,1,24,Letter designer,True,1.0,3.141592653589795,150.0,3427.75,8.124951384856766,2022-06-03 22:19:31,1.0,3.141592653589793
Main,144,True,False,1,24,Letter designer,True,0.8333333333333334,2.6179938779914953,150.0,3456.2083333333335,8.141111780593784,2022-06-03 22:19:31,0.8333333333333334,2.300523983021863
Main,144,True,True,1,24,Letter designer,True,0.75,2.3561944901923457,150.0,4286.958333333333,8.292851148247147,2022-06-03 22:19:31,0.8125,2.245927859731928
Main,145,False,True,1,24,Non-designer,False,0.7916666666666666,2.4870941840919207,383.3,3537.9583333333335,8.148461733802256,2022-06-03 22:08:42,0.8402777777777779,2.3193169289450983
Main,145,True,False,1,24,Non-designer,False,0.5416666666666666,1.7016960206944713,383.3,3556.6666666666665,8.174352300936151,2022-06-03 22:08:42,0.5520833333333333,1.6751522993833503
Main,145,True,True,1,24,Non-designer,False,0.75,2.3561944901923457,383.3,3778.2916666666665,8.226166369029086,2022-06-03 22:08:42,0.701388888888889,1.9853459887032199
Main,146,False,True,1,24,Non-designer,False,0.7916666666666666,2.4870941840919207,266.7,3674.7083333333335,8.195846348966898,2022-06-03 22:02:46,0.8819444444444445,2.440114173836071
Main,146,True,False,1,24,Non-designer,False,0.6666666666666666,2.094395102393196,266.7,3913.25,8.260706880448248,2022-06-03 22:02:46,0.7013888888888888,1.9853459887032194
Main,146,True,True,1,24,Non-designer,False,0.7916666666666666,2.4870941840919207,266.7,4172.583333333333,8.305487677316071,2022-06-03 22:02:46,0.8645833333333333,2.3878997609690735
Main,147,False,True,1,24,Non-designer,False,1.0,3.141592653589795,500.0,3987.0833333333335,8.275520805096717,2022-06-03 20:48:36,1.0,3.141592653589793
Main,147,True,False,1,24,Non-designer,False,0.6666666666666666,2.094395102393196,500.0,4751.833333333333,8.418921456055147,2022-06-03 20:48:36,0.7326388888888888,2.0547447269251324
Main,147,True,True,1,24,Non-designer,False,0.5833333333333334,1.8325957145940464,500.0,4666.875,8.417189431843083,2022-06-03 20:48:36,0.5868055555555556,1.7452916137520267
Main,148,False,True,1,24,Non-designer,False,0.8333333333333334,2.6179938779914953,266.7,3684.3333333333335,8.192117648804402,2022-06-03 20:41:20,0.829861111111111,2.291245401253044
Main,148,True,False,1,24,Non-designer,False,0.75,2.3561944901923457,266.7,3898.125,8.238008372520946,2022-06-03 20:41:20,0.71875,2.023612921539822
Main,148,True,True,1,24,Non-designer,False,0.75,2.3561944901923457,266.7,3498.4166666666665,8.153353051783506,2022-06-03 20:41:20,0.7708333333333333,2.1432148988877167
Main,149,False,True,1,24,Non-designer,False,0.75,2.3561944901923457,461.1,3568.1666666666665,8.176306868388652,2022-06-03 20:11:18,0.798611111111111,2.2108297158166645
Main,149,True,False,1,24,Non-designer,False,0.5416666666666666,1.7016960206944713,461.1,3682.125,8.197308636105445,2022-06-03 20:11:18,0.6041666666666666,1.780666919057634
Main,149,True,True,1,24,Non-designer,False,0.4583333333333333,1.4398966328953218,461.1,3639.9583333333335,8.191089595841836,2022-06-03 20:11:18,0.5520833333333334,1.6751522993833505
Main,150,False,True,1,24,Non-designer,False,0.8333333333333334,2.6179938779914953,305.6,3195.75,8.059246272380063,2022-06-03 20:03:01,0.9027777777777777,2.507408812765752
Main,150,True,False,1,24,Non-designer,False,0.625,1.9634954084936211,305.6,3656.0,8.188817581357485,2022-06-03 20:03:01,0.5625,1.696124157962962
Main,150,True,True,1,24,Non-designer,False,0.7083333333333334,2.2252947962927707,305.6,3811.2083333333335,8.217506016186592,2022-06-03 20:03:01,0.8020833333333333,2.2195160051354748
Main,151,False,True,1,24,Non-designer,False,0.875,2.7488935718910703,422.2,3879.7083333333335,8.252929931035307,2022-06-03 20:02:23,0.90625,2.519224165034773
Main,151,True,False,1,24,Non-designer,False,0.75,2.3561944901923457,422.2,4075.0416666666665,8.298975798093645,2022-06-03 20:02:23,0.7708333333333334,2.143214898887717
Main,151,True,True,1,24,Non-designer,False,0.7083333333333334,2.2252947962927707,422.2,4126.833333333333,8.307129603762014,2022-06-03 20:02:23,0.7534722222222223,2.102432591338221
Main,152,False,True,1,24,Non-designer,False,0.875,2.7488935718910703,188.9,3632.5,8.16576405834954,2022-06-03 19:59:53,0.8993055555555555,2.4957802891906757
Main,152,True,False,1,24,Non-designer,False,0.5833333333333334,1.8325957145940464,188.9,3763.125,8.218949639419103,2022-06-03 19:59:53,0.5625,1.696124157962962
Main,152,True,True,1,24,Non-designer,False,0.7083333333333334,2.2252947962927707,188.9,3735.4166666666665,8.198449065422269,2022-06-03 19:59:53,0.7673611111111109,2.1349753194817467
Main,153,False,True,1,24,Non-designer,False,0.6666666666666666,2.094395102393196,422.2,3526.9166666666665,8.153011741792795,2022-06-03 19:56:41,0.7916666666666667,2.1936229122068998
Main,153,True,False,1,24,Non-designer,False,0.75,2.3561944901923457,422.2,3745.4583333333335,8.213738544793364,2022-06-03 19:56:41,0.6631944444444444,1.903277040250473
Main,153,True,True,1,24,Non-designer,False,0.8333333333333334,2.6179938779914953,422.2,3731.375,8.212142265335714,2022-06-03 19:56:41,0.8680555555555556,2.398103111175434
Main,154,False,True,1,24,Non-designer,False,0.9166666666666666,2.8797932657906453,383.3,3727.5833333333335,8.176748476187557,2022-06-03 19:52:27,0.9444444444444444,2.6657104039293764
Main,154,True,False,1,24,Non-designer,False,0.4166666666666667,1.3089969389957472,383.3,4142.75,8.286200040651549,2022-06-03 19:52:27,0.4305555555555556,1.431456986037127
Main,154,True,True,1,24,Non-designer,False,0.625,1.9634954084936211,383.3,4073.7916666666665,8.277850691627465,2022-06-03 19:52:27,0.6840277777777778,1.9477132380192566
Main,155,False,True,1,24,Non-designer,False,0.875,2.7488935718910703,344.4,3253.125,8.079427786015389,2022-06-03 19:50:35,0.9895833333333333,2.9371124546212584
Main,155,True,False,1,24,Non-designer,False,0.5833333333333334,1.8325957145940464,344.4,3490.7916666666665,8.146561102079207,2022-06-03 19:50:35,0.5972222222222222,1.766487379660136
Main,155,True,True,1,24,Non-designer,False,0.6666666666666666,2.094395102393196,344.4,3416.625,8.118745787922196,2022-06-03 19:50:35,0.7222222222222222,2.031350318476219
Main,156,False,True,1,24,Non-designer,False,0.875,2.7488935718910703,461.1,4188.291666666667,8.318565456100266,2022-06-03 19:50:15,0.875,2.4188584057763776
Main,156,True,False,1,24,Non-designer,False,0.6666666666666666,2.094395102393196,461.1,4140.75,8.312658569521396,2022-06-03 19:50:15,0.6701388888888891,1.9180086146897788
Main,156,True,True,1,24,Non-designer,False,0.6666666666666666,2.094395102393196,461.1,4228.125,8.312055357703278,2022-06-03 19:50:15,0.7430555555555556,2.0784304895182757
Main,157,False,True,1,24,Non-designer,False,0.875,2.7488935718910703,422.2,4019.4166666666665,8.287451446535941,2022-06-03 19:49:25,0.8854166666666667,2.450944585031871
Main,157,True,False,1,24,Non-designer,False,0.5833333333333334,1.8325957145940464,422.2,4268.375,8.348847674726718,2022-06-03 19:49:25,0.5902777777777777,1.752347587591981
Main,157,True,True,1,24,Non-designer,False,0.7083333333333334,2.2252947962927707,422.2,4081.25,8.3045945113749,2022-06-03 19:49:25,0.7256944444444444,2.03911753334995
Main,158,False,True,1,24,Graphic designer,True,0.9166666666666666,2.8797932657906453,227.8,6249.958333333333,8.471272496417113,2022-06-03 19:46:25,0.9791666666666667,2.8519056595926737
Main,158,True,False,1,24,Graphic designer,True,0.7083333333333334,2.2252947962927707,227.8,6687.666666666667,8.460494642020555,2022-06-03 19:46:25,0.7361111111111112,2.0626064213603414
Main,158,True,True,1,24,Graphic designer,True,0.7083333333333334,2.2252947962927707,227.8,5688.583333333333,8.585210327997927,2022-06-03 19:46:25,0.7361111111111112,2.0626064213603414
Main,159,False,True,1,24,Non-designer,False,0.9583333333333334,3.01069295969022,383.3,3785.7083333333335,8.218883596750084,2022-06-03 19:44:32,0.9548611111111112,2.7134109039834793
Main,159,True,False,1,24,Non-designer,False,0.625,1.9634954084936211,383.3,3646.7916666666665,8.189450231607628,2022-06-03 19:44:32,0.6805555555555556,1.9402554566946664
Main,159,True,True,1,24,Non-designer,False,0.6666666666666666,2.094395102393196,383.3,3630.5833333333335,8.187736210197208,2022-06-03 19:44:32,0.75,2.0943951023931953
Main,160,False,True,1,24,Non-designer,False,0.5416666666666666,1.7016960206944713,383.3,3901.25,8.245809318944243,2022-06-03 19:38:34,0.4965277777777778,1.5638518265329115
Main,160,True,False,1,24,Non-designer,False,0.5,1.5707963267948966,383.3,4038.0416666666665,8.250716660267317,2022-06-03 19:38:34,0.5416666666666667,1.6542264134055118
Main,160,True,True,1,24,Non-designer,False,0.5,1.5707963267948966,383.3,4531.791666666667,8.371531270098613,2022-06-03 19:38:34,0.45833333333333337,1.4873662401842818
Main,161,False,True,1,24,Non-designer,False,0.9166666666666666,2.8797932657906453,266.7,3370.2916666666665,8.113111617894626,2022-06-03 19:34:44,0.9652777777777778,2.7667235441438374
Main,161,True,False,1,24,Non-designer,False,0.625,1.9634954084936211,266.7,3385.0,8.117466552110104,2022-06-03 19:34:44,0.6354166666666667,1.845054940283527
Main,161,True,True,1,24,Non-designer,False,0.75,2.3561944901923457,266.7,3456.625,8.13765499289954,2022-06-03 19:34:44,0.7152777777777777,2.0159045437472423
Main,162,False,True,1,24,Non-designer,False,0.875,2.7488935718910703,305.6,2975.8333333333335,7.988070543784523,2022-06-03 19:27:35,0.875,2.4188584057763776
Main,162,True,False,1,24,Non-designer,False,0.5833333333333334,1.8325957145940464,305.6,3050.6666666666665,8.013480793208894,2022-06-03 19:27:35,0.5833333333333335,1.738244406014586
Main,162,True,True,1,24,Non-designer,False,0.75,2.3561944901923457,305.6,2998.7083333333335,7.994443484988047,2022-06-03 19:27:35,0.75,2.0943951023931953
Main,163,False,True,1,24,Typographer,True,1.0,3.141592653589795,422.2,3463.25,8.130445090168719,2022-06-03 19:24:54,1.0,3.141592653589793
Main,163,True,False,1,24,Typographer,True,0.8333333333333334,2.6179938779914953,422.2,4047.6666666666665,8.23851046394555,2022-06-03 19:24:54,0.7986111111111112,2.2108297158166645
Main,163,True,True,1,24,Typographer,True,0.75,2.3561944901923457,422.2,3356.0,8.115141151810244,2022-06-03 19:24:54,0.7152777777777777,2.0159045437472423
Main,164,False,True,1,24,Non-designer,False,0.875,2.7488935718910703,227.8,3113.4166666666665,8.03484036026155,2022-06-03 19:19:51,0.875,2.4188584057763776
Main,164,True,False,1,24,Non-designer,False,0.7083333333333334,2.2252947962927707,227.8,3263.3333333333335,8.072141134991027,2022-06-03 19:19:51,0.75,2.0943951023931953
Main,164,True,True,1,24,Non-designer,False,0.6666666666666666,2.094395102393196,227.8,3309.7083333333335,8.078567395045704,2022-06-03 19:19:51,0.75,2.0943951023931953
Main,165,False,True,1,24,Non-designer,False,0.75,2.3561944901923457,266.7,3423.3333333333335,8.13001833964828,2022-06-03 19:16:08,0.8333333333333333,2.3005239830218627
Main,165,True,False,1,24,Non-designer,False,0.7916666666666666,2.4870941840919207,266.7,3643.3333333333335,8.193869266058163,2022-06-03 19:16:08,0.7916666666666665,2.193622912206899
Main,165,True,True,1,24,Non-designer,False,0.6666666666666666,2.094395102393196,266.7,3692.4166666666665,8.193824872500546,2022-06-03 19:16:08,0.7916666666666666,2.1936229122068998
Main,166,False,True,1,24,Non-designer,False,0.75,2.3561944901923457,266.7,3527.5416666666665,8.13029813609677,2022-06-03 19:15:21,0.9479166666666666,2.6810992285307336
Main,166,True,False,1,24,Non-designer,False,0.6666666666666666,2.094395102393196,266.7,3613.2083333333335,8.178056629310952,2022-06-03 19:15:21,0.6944444444444445,1.9702215666754914
Main,166,True,True,1,24,Non-designer,False,0.6666666666666666,2.094395102393196,266.7,3501.25,8.155770536367994,2022-06-03 19:15:21,0.75,2.0943951023931953
Main,167,False,True,1,24,Letter designer,True,0.9583333333333334,3.01069295969022,150.0,2961.5,7.971850240104683,2022-06-03 18:47:21,1.0,3.141592653589793
Main,167,True,False,1,24,Letter designer,True,0.7083333333333334,2.2252947962927707,150.0,2960.9583333333335,7.976133038333088,2022-06-03 18:47:21,0.7673611111111112,2.1349753194817476
Main,167,True,True,1,24,Letter designer,True,0.75,2.3561944901923457,150.0,3123.2916666666665,8.011333042078244,2022-06-03 18:47:21,0.7708333333333333,2.1432148988877167
Main,168,False,True,1,24,Non-designer,False,0.7916666666666666,2.4870941840919207,150.0,3143.875,8.045023394693994,2022-06-03 18:16:28,0.7916666666666666,2.1936229122068998
Main,168,True,False,1,24,Non-designer,False,0.625,1.9634954084936211,150.0,3344.0,8.09814682610961,2022-06-03 18:16:28,0.6249999999999999,1.8234765819369751
Main,168,True,True,1,24,Non-designer,False,0.9166666666666666,2.8797932657906453,150.0,3133.9166666666665,8.040511344308682,2022-06-03 18:16:28,0.9166666666666665,2.5559071101326416
Main,169,False,True,1,24,Other designer,True,1.0,3.141592653589795,461.1,4049.875,8.298650559653899,2022-06-03 18:10:23,1.0,3.141592653589793
Main,169,True,False,1,24,Other designer,True,0.875,2.7488935718910703,461.1,4124.666666666667,8.316197491846227,2022-06-03 18:10:23,0.8680555555555556,2.398103111175434
Main,169,True,True,1,24,Other designer,True,0.6666666666666666,2.094395102393196,461.1,4394.208333333333,8.369610238922045,2022-06-03 18:10:23,0.7152777777777778,2.0159045437472423
Main,170,False,True,1,24,Non-designer,False,0.75,2.3561944901923457,227.8,3636.625,8.185280373985528,2022-06-03 17:57:57,0.8194444444444444,2.263849408374869
Main,170,True,False,1,24,Non-designer,False,0.5,1.5707963267948966,227.8,3501.5,8.14482540518779,2022-06-03 17:57:57,0.5277777777777778,1.626380500075814
Main,170,True,True,1,24,Non-designer,False,0.7083333333333334,2.2252947962927707,227.8,3410.9166666666665,8.130201107081168,2022-06-03 17:57:57,0.7743055555555556,2.1514984614969883
Main,171,False,True,1,24,Other designer,True,0.9166666666666666,2.8797932657906453,383.3,3034.4166666666665,8.011905274693111,2022-06-03 17:23:51,1.0,3.141592653589793
Main,171,True,False,1,24,Other designer,True,0.25,0.7853981633974483,383.3,3426.875,8.101529728663271,2022-06-03 17:23:51,0.18055555555555555,0.8777432452149241
Main,171,True,True,1,24,Other designer,True,0.6666666666666666,2.094395102393196,383.3,6122.125,8.223621232259882,2022-06-03 17:23:51,0.7152777777777778,2.0159045437472423
Main,172,False,True,1,24,Graphic designer,True,0.9166666666666666,2.8797932657906453,188.9,2996.7916666666665,7.978331811947647,2022-06-03 16:59:49,0.9583333333333333,2.7304547912674453
Main,172,True,False,1,24,Graphic designer,True,0.625,1.9634954084936211,188.9,2895.2083333333335,7.959337478978551,2022-06-03 16:59:49,0.7291666666666667,2.0469153877066932
Main,172,True,True,1,24,Graphic designer,True,0.6666666666666666,2.094395102393196,188.9,2692.5833333333335,7.89370326506026,2022-06-03 16:59:49,0.8854166666666666,2.4509445850318703
Main,173,False,True,1,24,Graphic designer,True,0.9166666666666666,2.8797932657906453,305.6,3441.2083333333335,8.129491236558499,2022-06-03 16:58:50,0.9618055555555556,2.748192745791988
Main,173,True,False,1,24,Graphic designer,True,0.5416666666666666,1.7016960206944713,305.6,3453.2916666666665,8.12568257287579,2022-06-03 16:58:50,0.5590277777777778,1.6891278422427998
Main,173,True,True,1,24,Graphic designer,True,0.7083333333333334,2.2252947962927707,305.6,3534.2916666666665,8.151464176045238,2022-06-03 16:58:50,0.7569444444444445,2.1105082552851027
Main,174,False,True,1,24,Letter designer,True,0.8333333333333334,2.6179938779914953,266.7,3761.5416666666665,8.220718729826961,2022-06-03 16:44:28,0.875,2.4188584057763776
Main,174,True,False,1,24,Letter designer,True,0.75,2.3561944901923457,266.7,4264.625,8.34535413806258,2022-06-03 16:44:28,0.75,2.0943951023931953
Main,174,True,True,1,24,Letter designer,True,0.7083333333333334,2.2252947962927707,266.7,4584.958333333333,8.403548278052272,2022-06-03 16:44:28,0.7916666666666667,2.1936229122068998
Main,175,False,True,1,24,Non-designer,False,0.5,1.5707963267948966,500.0,3574.9166666666665,8.168631701828257,2022-06-03 16:43:46,0.5833333333333333,1.7382444060145856
Main,175,True,False,1,24,Non-designer,False,0.4166666666666667,1.3089969389957472,500.0,4584.916666666667,8.327196841144657,2022-06-03 16:43:46,0.40972222222222227,1.3892450659978122
Main,175,True,True,1,24,Non-designer,False,0.5,1.5707963267948966,500.0,4044.5833333333335,8.245449080358606,2022-06-03 16:43:46,0.4166666666666667,1.4033482475752073
Main,176,False,True,1,24,Other designer,True,0.875,2.7488935718910703,227.8,3459.75,8.139913129535175,2022-06-03 16:22:06,0.9236111111111112,2.581530740897968
Main,176,True,False,1,24,Other designer,True,0.7083333333333334,2.2252947962927707,227.8,3629.5833333333335,8.189968687678089,2022-06-03 16:22:06,0.7569444444444445,2.1105082552851027
Main,176,True,True,1,24,Other designer,True,0.8333333333333334,2.6179938779914953,227.8,3710.7083333333335,8.201364808689773,2022-06-03 16:22:06,0.9027777777777778,2.507408812765753
Main,177,False,True,1,24,Non-designer,False,0.9166666666666666,2.8797932657906453,266.7,2873.3333333333335,7.959376747754566,2022-06-03 16:17:00,0.9062499999999999,2.519224165034772
Main,177,True,False,1,24,Non-designer,False,0.8333333333333334,2.6179938779914953,266.7,3007.4583333333335,7.997347952552535,2022-06-03 16:17:00,0.8402777777777778,2.3193169289450974
Main,177,True,True,1,24,Non-designer,False,0.7083333333333334,2.2252947962927707,266.7,2938.6666666666665,7.981554934558485,2022-06-03 16:17:00,0.7847222222222221,2.1766261898570085
Main,178,False,True,1,24,Non-designer,False,0.7916666666666666,2.4870941840919207,500.0,4119.875,8.292143119554265,2022-06-03 15:55:43,0.7291666666666666,2.046915387706693
Main,178,True,False,1,24,Non-designer,False,0.4583333333333333,1.4398966328953218,500.0,3821.25,8.23570610286467,2022-06-03 15:55:43,0.5902777777777778,1.7523475875919814
Main,178,True,True,1,24,Non-designer,False,0.5833333333333334,1.8325957145940464,500.0,3857.9166666666665,8.22079050948974,2022-06-03 15:55:43,0.6111111111111112,1.7948894190962676
Main,179,False,True,1,24,Non-designer,False,0.9583333333333334,3.01069295969022,500.0,4036.1666666666665,8.29118737342107,2022-06-03 15:38:00,0.951388888888889,2.6969810317966427
Main,179,True,False,1,24,Non-designer,False,0.9166666666666666,2.8797932657906453,500.0,4185.083333333333,8.321087225567569,2022-06-03 15:38:00,0.888888888888889,2.4619188346815495
Main,179,True,True,1,24,Non-designer,False,0.75,2.3561944901923457,500.0,4482.375,8.335253506421337,2022-06-03 15:38:00,0.7708333333333333,2.1432148988877167
Main,180,False,True,1,24,Letter designer,True,0.9583333333333334,3.01069295969022,150.0,3098.7916666666665,8.031053364918879,2022-06-03 15:37:56,1.0,3.141592653589793
Main,180,True,False,1,24,Letter designer,True,0.75,2.3561944901923457,150.0,3209.375,8.047231998285946,2022-06-03 15:37:56,0.7083333333333334,2.0005717580994244
Main,180,True,True,1,24,Letter designer,True,0.75,2.3561944901923457,150.0,3508.6666666666665,8.143246789990094,2022-06-03 15:37:56,0.8333333333333334,2.300523983021863
Main,181,False,True,1,24,Non-designer,False,0.9166666666666666,2.8797932657906453,538.9,3219.875,8.071626502086081,2022-06-03 15:29:41,0.9409722222222221,2.650767976949863
Main,181,True,False,1,24,Non-designer,False,0.7916666666666666,2.4870941840919207,538.9,3471.375,8.141546646490335,2022-06-03 15:29:41,0.8576388888888888,2.3678178364397025
Main,181,True,True,1,24,Non-designer,False,0.75,2.3561944901923457,538.9,3480.625,8.139862788667708,2022-06-03 15:29:41,0.8055555555555556,2.2282598831765403
Main,182,False,True,1,24,Non-designer,False,0.8333333333333334,2.6179938779914953,422.2,3718.1666666666665,8.2101393759977,2022-06-03 15:29:04,0.9305555555555556,2.6082474046791386
Main,182,True,False,1,24,Non-designer,False,0.5833333333333334,1.8325957145940464,422.2,3817.625,8.233425755636256,2022-06-03 15:29:04,0.5972222222222223,1.7664873796601364
Main,182,True,True,1,24,Non-designer,False,0.625,1.9634954084936211,422.2,4011.0416666666665,8.281569706110853,2022-06-03 15:29:04,0.6805555555555556,1.9402554566946664
Main,183,False,True,1,24,Non-designer,False,0.9583333333333334,3.01069295969022,266.7,3012.5833333333335,7.996213888659876,2022-06-03 15:25:11,0.9930555555555556,2.974732480368565
Main,183,True,False,1,24,Non-designer,False,0.7916666666666666,2.4870941840919207,266.7,3338.8333333333335,8.096337101917404,2022-06-03 15:25:11,0.84375,2.3288370922211326
Main,183,True,True,1,24,Non-designer,False,0.875,2.7488935718910703,266.7,3115.75,8.033805307357174,2022-06-03 15:25:11,0.90625,2.519224165034773
Main,184,False,True,1,24,Letter designer,True,1.0,3.141592653589795,150.0,2985.4166666666665,7.964105899685047,2022-06-03 15:17:47,1.0,3.141592653589793
Main,184,True,False,1,24,Letter designer,True,0.875,2.7488935718910703,150.0,2990.125,7.957863534455128,2022-06-03 15:17:47,0.875,2.4188584057763776
Main,184,True,True,1,24,Letter designer,True,0.75,2.3561944901923457,150.0,3116.375,8.010547023326716,2022-06-03 15:17:47,0.75,2.0943951023931953
Main,185,False,True,1,24,Other designer,True,0.9166666666666666,2.8797932657906453,461.1,3373.7916666666665,8.121841379974416,2022-06-03 15:13:08,1.0,3.141592653589793
Main,185,True,False,1,24,Other designer,True,0.25,0.7853981633974483,461.1,3687.4583333333335,8.202588270486808,2022-06-03 15:13:08,0.17361111111111113,0.8595508626090554
Main,185,True,True,1,24,Other designer,True,0.7916666666666666,2.4870941840919207,461.1,3614.5,8.186295290690532,2022-06-03 15:13:08,0.7916666666666666,2.1936229122068998
Main,186,False,True,1,24,Non-designer,False,0.9583333333333334,3.01069295969022,266.7,3104.875,8.033706861242319,2022-06-03 15:12:06,1.0,3.141592653589793
Main,186,True,False,1,24,Non-designer,False,0.625,1.9634954084936211,266.7,3681.2916666666665,8.195683166650836,2022-06-03 15:12:06,0.6493055555555556,1.8740333623039431
Main,186,True,True,1,24,Non-designer,False,0.7916666666666666,2.4870941840919207,266.7,3310.8333333333335,8.093147517201313,2022-06-03 15:12:06,0.8159722222222222,2.2548558961444116
Main,187,False,True,1,24,Non-designer,False,0.7083333333333334,2.2252947962927707,383.3,4076.125,8.295439144972635,2022-06-03 15:10:38,0.6770833333333334,1.932819151700369
Main,187,True,False,1,24,Non-designer,False,0.5416666666666666,1.7016960206944713,383.3,4105.708333333333,8.303648021804987,2022-06-03 15:10:38,0.5902777777777778,1.7523475875919814
Main,187,True,True,1,24,Non-designer,False,0.75,2.3561944901923457,383.3,4535.708333333333,8.358267017745925,2022-06-03 15:10:38,0.8541666666666666,2.3579306047919952
Main,188,False,True,1,24,Non-designer,False,0.875,2.7488935718910703,266.7,2754.4166666666665,7.912653787759017,2022-06-03 15:07:54,0.90625,2.519224165034773
Main,188,True,False,1,24,Non-designer,False,0.7916666666666666,2.4870941840919207,266.7,2828.5833333333335,7.930412036515164,2022-06-03 15:07:54,0.8333333333333333,2.3005239830218627
Main,188,True,True,1,24,Non-designer,False,0.8333333333333334,2.6179938779914953,266.7,2752.625,7.913121723808019,2022-06-03 15:07:54,0.875,2.4188584057763776
Main,189,False,True,1,24,Non-designer,False,0.875,2.7488935718910703,227.8,3765.7083333333335,8.213593351472541,2022-06-03 14:43:50,0.9236111111111112,2.581530740897968
Main,189,True,False,1,24,Non-designer,False,0.5416666666666666,1.7016960206944713,227.8,4263.166666666667,8.304033219183571,2022-06-03 14:43:50,0.6354166666666667,1.845054940283527
Main,189,True,True,1,24,Non-designer,False,0.6666666666666666,2.094395102393196,227.8,3904.5416666666665,8.237862633071495,2022-06-03 14:43:50,0.6631944444444444,1.903277040250473
Main,190,False,True,1,24,Non-designer,False,0.9166666666666666,2.8797932657906453,188.9,3601.9583333333335,8.172040829522048,2022-06-03 14:37:29,0.9513888888888887,2.6969810317966405
Main,190,True,False,1,24,Non-designer,False,0.625,1.9634954084936211,188.9,3602.625,8.18497974152455,2022-06-03 14:37:29,0.6041666666666667,1.7806669190576345
Main,190,True,True,1,24,Non-designer,False,0.7083333333333334,2.2252947962927707,188.9,3831.0833333333335,8.227116152777283,2022-06-03 14:37:29,0.71875,2.023612921539822
Main,191,False,True,1,24,Non-designer,False,0.875,2.7488935718910703,266.7,4200.75,8.29671453526777,2022-06-03 14:32:30,0.8333333333333334,2.300523983021863
Main,191,True,False,1,24,Non-designer,False,0.6666666666666666,2.094395102393196,266.7,3906.4583333333335,8.240051791940337,2022-06-03 14:32:30,0.6527777777777777,1.8813181614606642
Main,191,True,True,1,24,Non-designer,False,0.75,2.3561944901923457,266.7,3520.0,8.157146290788292,2022-06-03 14:32:30,0.7638888888888888,2.1267784793154387
Main,192,False,True,1,24,Non-designer,False,0.8333333333333334,2.6179938779914953,227.8,3250.2916666666665,8.069747747612595,2022-06-03 14:28:45,0.8680555555555556,2.398103111175434
Main,192,True,False,1,24,Non-designer,False,0.625,1.9634954084936211,227.8,3369.7083333333335,8.109410150576315,2022-06-03 14:28:45,0.5972222222222222,1.766487379660136
Main,192,True,True,1,24,Non-designer,False,0.7083333333333334,2.2252947962927707,227.8,3347.625,8.099851716424778,2022-06-03 14:28:45,0.7291666666666666,2.046915387706693
Main,193,False,True,1,24,Non-designer,False,0.9166666666666666,2.8797932657906453,227.8,2589.7083333333335,7.854773579972764,2022-06-03 14:18:10,0.9166666666666667,2.555907110132642
Main,193,True,False,1,24,Non-designer,False,0.5416666666666666,1.7016960206944713,227.8,2889.875,7.949573979101945,2022-06-03 14:18:10,0.5451388888888888,1.6611971849866516
Main,193,True,True,1,24,Non-designer,False,0.6666666666666666,2.094395102393196,227.8,2829.0416666666665,7.93474981665497,2022-06-03 14:18:10,0.7013888888888888,1.9853459887032194
Main,194,False,True,1,24,Non-designer,False,0.9166666666666666,2.8797932657906453,305.6,8640.958333333334,8.435722000836153,2022-06-03 14:15:23,0.9652777777777777,2.7667235441438374
Main,194,True,False,1,24,Non-designer,False,0.625,1.9634954084936211,305.6,5063.541666666667,8.323966513339977,2022-06-03 14:15:23,0.7222222222222222,2.031350318476219
