StudyID,ParticipantID,Composite pair,Congruent pair,TestID,TrialID,Training,isDesigner,First,Second,Same,Response,Correct,ET,RT,RTnorm,Date,Correctnorm,AUC,AUCnorm
Main,0,False,False,1,12,Letter designer,True,h_DD,h_AA,False,Sure different,1.0,150.0,2846.1666666666665,7.948959421847703,2022-06-06 08:54:10,3.141592653589793,0.0,0.0
Main,0,False,True,1,12,Letter designer,True,n_AA,n_AA,True,Sure same,1.0,150.0,2748.75,7.916867394187711,2022-06-06 08:54:10,3.141592653589793,0.0,0.0
Main,0,True,False,1,36,Letter designer,True,z_BD,z_AD,False,Sure different,0.6666666666666666,150.0,3125.25,8.025540274242605,2022-06-06 08:54:10,1.9106332362490186,0.8279569892473119,2.2861891423720238
Main,0,True,True,1,12,Letter designer,True,c_AD,c_AD,True,Sure same,1.0,150.0,2710.3333333333335,7.901519750460392,2022-06-06 08:54:10,3.141592653589793,0.0,0.0
Main,1,False,False,1,12,Letter designer,True,c_AA,c_DD,False,Sure different,1.0,150.0,2675.5833333333335,7.89035736929628,2022-06-06 07:43:42,3.141592653589793,0.0,0.0
Main,1,False,True,1,12,Letter designer,True,n_AA,n_AA,True,Sure same,0.8333333333333334,150.0,4053.1666666666665,8.252249170185385,2022-06-06 07:43:42,2.300523983021863,0.0,0.0
Main,1,True,False,1,36,Letter designer,True,t_BD,t_AD,False,Probably same,0.8055555555555556,150.0,3648.9444444444443,8.142823575866323,2022-06-06 07:43:42,2.2282598831765403,0.8946236559139784,2.4803786310350424
Main,1,True,True,1,12,Letter designer,True,a_AD,a_AD,True,Probably same,0.8333333333333334,150.0,3429.0833333333335,8.117868246957128,2022-06-06 07:43:42,2.300523983021863,0.0,0.0
Main,2,False,False,1,12,Letter designer,True,q_AA,q_DD,False,Sure different,1.0,150.0,3500.0833333333335,8.139310650379917,2022-06-06 06:49:39,3.141592653589793,0.0,0.0
Main,2,False,True,1,12,Letter designer,True,r_AA,r_AA,True,Sure same,0.75,150.0,4679.833333333333,8.281660589629025,2022-06-06 06:49:39,2.0943951023931953,0.0,0.0
Main,2,True,False,1,36,Letter designer,True,q_AD,q_BD,False,Sure same,0.6388888888888888,150.0,3718.6388888888887,8.209702749220227,2022-06-06 06:49:39,1.8522764000257417,0.7150537634408602,2.015408207066215
Main,2,True,True,1,12,Letter designer,True,h_AD,h_AD,True,Sure same,1.0,150.0,3495.8333333333335,8.155138490014691,2022-06-06 06:49:39,3.141592653589793,0.0,0.0
Main,3,False,False,1,12,Typographer,True,c_AA,c_DD,False,Sure different,1.0,266.7,3094.6666666666665,8.033405287921541,2022-06-05 22:53:26,3.141592653589793,0.0,0.0
Main,3,False,True,1,12,Typographer,True,b_AA,b_AA,True,Sure same,0.9166666666666666,266.7,3326.5833333333335,8.10706935519355,2022-06-05 22:53:26,2.555907110132642,0.0,0.0
Main,3,True,False,1,36,Typographer,True,a_AB,a_AD,True,Sure same,0.75,266.7,3403.972222222222,8.107641159466269,2022-06-05 22:53:26,2.0943951023931953,0.8204301075268816,2.2664146402867096
Main,3,True,True,1,12,Typographer,True,n_AD,n_AD,True,Probably same,0.9166666666666666,266.7,3511.8333333333335,8.157438676646604,2022-06-05 22:53:26,2.555907110132642,0.0,0.0
Main,4,False,False,1,12,Other designer,True,q_DD,q_AA,False,Sure different,1.0,305.6,2826.5,7.945792559824009,2022-06-05 22:26:55,3.141592653589793,0.0,0.0
Main,4,False,True,1,12,Other designer,True,t_AA,t_AA,True,Sure different,0.5833333333333334,305.6,5370.666666666667,8.497461261160797,2022-06-05 22:26:55,1.738244406014586,0.0,0.0
Main,4,True,False,1,36,Other designer,True,h_BD,h_AD,False,Sure different,0.75,305.6,3413.527777777778,8.110320345573195,2022-06-05 22:26:55,2.0943951023931953,0.6516129032258065,1.8788723512412315
Main,4,True,True,1,12,Other designer,True,j_AD,j_AD,True,Sure same,0.75,305.6,4101.583333333333,8.240922245469056,2022-06-05 22:26:55,2.0943951023931953,0.0,0.0
Main,5,False,False,1,12,Graphic designer,True,r_DD,r_AA,False,Sure different,0.9166666666666666,266.7,3356.3333333333335,8.092679659280181,2022-06-05 21:21:07,2.555907110132642,0.0,0.0
Main,5,False,True,1,12,Graphic designer,True,n_AA,n_AA,True,Probably same,0.8333333333333334,266.7,3671.5,8.172340405571225,2022-06-05 21:21:07,2.300523983021863,0.0,0.0
Main,5,True,False,1,36,Graphic designer,True,z_BC,z_AD,False,Sure different,0.6666666666666666,266.7,3611.222222222222,8.16917975916979,2022-06-05 21:21:07,1.9106332362490186,0.7688172043010753,2.138425352908165
Main,5,True,True,1,12,Graphic designer,True,q_AD,q_AD,True,Sure different,0.75,266.7,3538.4166666666665,8.14455165548683,2022-06-05 21:21:07,2.0943951023931953,0.0,0.0
Main,6,False,False,1,12,Graphic designer,True,z_AA,z_DD,False,Sure different,1.0,227.8,2743.25,7.915851041741608,2022-06-05 21:01:05,3.141592653589793,0.0,0.0
Main,6,False,True,1,12,Graphic designer,True,z_AA,z_AA,True,Probably same,0.75,227.8,3357.9166666666665,8.09448564737077,2022-06-05 21:01:05,2.0943951023931953,0.0,0.0
Main,6,True,False,1,36,Graphic designer,True,c_BC,c_AD,False,Sure different,0.7222222222222222,227.8,3174.777777777778,8.057085577904795,2022-06-05 21:01:05,2.031350318476219,0.8021505376344087,2.2196846891442674
Main,6,True,True,1,12,Graphic designer,True,q_AD,q_AD,True,Probably different,0.8333333333333334,227.8,3402.5,8.123414959550585,2022-06-05 21:01:05,2.300523983021863,0.0,0.0
Main,7,False,False,1,12,Letter designer,True,q_DD,q_AA,False,Probably same,0.9166666666666666,188.9,3063.0833333333335,8.017228290223104,2022-06-05 20:33:21,2.555907110132642,0.0,0.0
Main,7,False,True,1,12,Letter designer,True,a_AA,a_AA,True,Sure same,1.0,188.9,2942.75,7.982908869190507,2022-06-05 20:33:21,3.141592653589793,0.0,0.0
Main,7,True,False,1,36,Letter designer,True,a_BC,a_AD,False,Probably different,0.7777777777777778,188.9,3338.1944444444443,8.085529787375803,2022-06-05 20:33:21,2.1598272970111707,0.8709677419354839,2.40674884435019
Main,7,True,True,1,12,Letter designer,True,a_AD,a_AD,True,Sure same,0.9166666666666666,188.9,3090.1666666666665,8.032165756792276,2022-06-05 20:33:21,2.555907110132642,0.0,0.0
Main,8,False,False,1,12,Non-designer,False,p_DD,p_AA,False,Sure different,1.0,422.2,3996.25,8.289811409476185,2022-06-05 20:08:14,3.141592653589793,0.0,0.0
Main,8,False,True,1,12,Non-designer,False,b_AA,b_AA,True,Probably same,0.9166666666666666,422.2,4755.666666666667,8.437163294886133,2022-06-05 20:08:14,2.555907110132642,0.0,0.0
Main,8,True,False,1,36,Non-designer,False,q_AD,q_BC,False,Sure same,0.5277777777777778,422.2,4618.666666666667,8.402383907366819,2022-06-05 20:08:14,1.626380500075814,0.6021505376344086,1.7765459967820387
Main,8,True,True,1,12,Non-designer,False,c_AD,c_AD,True,Probably different,0.9166666666666666,422.2,4521.75,8.402530080831417,2022-06-05 20:08:14,2.555907110132642,0.0,0.0
Main,9,False,False,1,12,Graphic designer,True,h_AA,h_DD,False,Sure different,0.9166666666666666,188.9,3350.9166666666665,8.097707356018153,2022-06-05 19:31:27,2.555907110132642,0.0,0.0
Main,9,False,True,1,12,Graphic designer,True,t_AA,t_AA,True,Sure same,0.9166666666666666,188.9,3056.3333333333335,8.007662325055938,2022-06-05 19:31:27,2.555907110132642,0.0,0.0
Main,9,True,False,1,36,Graphic designer,True,p_AD,p_BC,False,Sure different,0.6944444444444444,188.9,4093.0555555555557,8.26836330859653,2022-06-05 19:31:27,1.9702215666754914,0.8688172043010753,2.4003564071396317
Main,9,True,True,1,12,Graphic designer,True,a_AD,a_AD,True,Sure same,1.0,188.9,3503.9166666666665,8.115654779818414,2022-06-05 19:31:27,3.141592653589793,0.0,0.0
Main,10,False,False,1,12,Graphic designer,True,r_AA,r_DD,False,Sure different,0.8333333333333334,150.0,2387.4166666666665,7.768012115734758,2022-06-05 19:29:54,2.300523983021863,0.0,0.0
Main,10,False,True,1,12,Graphic designer,True,r_AA,r_AA,True,Sure different,0.75,150.0,2532.0833333333335,7.828695755460889,2022-06-05 19:29:54,2.0943951023931953,0.0,0.0
Main,10,True,False,1,36,Graphic designer,True,e_AD,e_BD,False,Sure same,0.6944444444444444,150.0,3041.1666666666665,7.936389226178493,2022-06-05 19:29:54,1.9702215666754914,0.789247311827957,2.18767827337017
Main,10,True,True,1,12,Graphic designer,True,e_AD,e_AD,True,Sure same,0.6666666666666666,150.0,2647.4166666666665,7.854895836019039,2022-06-05 19:29:54,1.9106332362490186,0.0,0.0
Main,11,False,False,1,12,Letter designer,True,r_AA,r_DD,False,Sure different,1.0,266.7,3264.3333333333335,8.088346721523545,2022-06-05 18:51:07,3.141592653589793,0.0,0.0
Main,11,False,True,1,12,Letter designer,True,q_AA,q_AA,True,Probably different,0.9166666666666666,266.7,4428.666666666667,8.369366216369086,2022-06-05 18:51:07,2.555907110132642,0.0,0.0
Main,11,True,False,1,36,Letter designer,True,z_AD,z_BD,False,Sure different,0.7222222222222222,266.7,3749.3333333333335,8.212698519259968,2022-06-05 18:51:07,2.031350318476219,0.7376344086021506,2.066065862732943
Main,11,True,True,1,12,Letter designer,True,r_AD,r_AD,True,Probably same,0.6666666666666666,266.7,3906.1666666666665,8.265906501874715,2022-06-05 18:51:07,1.9106332362490186,0.0,0.0
Main,12,False,False,1,12,Letter designer,True,e_AA,e_DD,False,Sure different,1.0,227.8,2786.3333333333335,7.929128443100219,2022-06-05 18:31:16,3.141592653589793,0.0,0.0
Main,12,False,True,1,12,Letter designer,True,j_AA,j_AA,True,Sure same,1.0,227.8,2713.75,7.8988684586927,2022-06-05 18:31:16,3.141592653589793,0.0,0.0
Main,12,True,False,1,36,Letter designer,True,c_AD,c_AB,True,Probably same,0.7777777777777778,227.8,2997.472222222222,7.991204852284211,2022-06-05 18:31:16,2.1598272970111707,0.8806451612903226,2.436097099709637
Main,12,True,True,1,12,Letter designer,True,a_AD,a_AD,True,Sure same,0.9166666666666666,227.8,2835.3333333333335,7.925590446272544,2022-06-05 18:31:16,2.555907110132642,0.0,0.0
Main,13,False,False,1,12,Letter designer,True,p_AA,p_DD,False,Sure different,1.0,150.0,2693.9166666666665,7.895472848987507,2022-06-05 18:09:18,3.141592653589793,0.0,0.0
Main,13,False,True,1,12,Letter designer,True,h_AA,h_AA,True,Probably same,0.8333333333333334,150.0,3034.5,8.009310900967408,2022-06-05 18:09:18,2.300523983021863,0.0,0.0
Main,13,True,False,1,36,Letter designer,True,z_BC,z_AD,False,Sure different,0.75,150.0,2887.25,7.957919249035326,2022-06-05 18:09:18,2.0943951023931953,0.8774193548387097,2.426204508531169
Main,13,True,True,1,12,Letter designer,True,z_AD,z_AD,True,Probably different,0.75,150.0,3181.5,8.052688570416207,2022-06-05 18:09:18,2.0943951023931953,0.0,0.0
Main,14,False,False,1,12,Non-designer,False,p_AA,p_DD,False,Sure different,1.0,383.3,3237.6666666666665,8.080852823364879,2022-06-05 16:50:39,3.141592653589793,0.0,0.0
Main,14,False,True,1,12,Non-designer,False,a_AA,a_AA,True,Sure same,0.9166666666666666,383.3,3553.6666666666665,8.165371312505487,2022-06-05 16:50:39,2.555907110132642,0.0,0.0
Main,14,True,False,1,36,Non-designer,False,c_AB,c_AD,True,Probably same,0.6111111111111112,383.3,3564.3611111111113,8.159725442644817,2022-06-05 16:50:39,1.7948894190962676,0.6483870967741936,1.872109206548557
Main,14,True,True,1,12,Non-designer,False,r_AD,r_AD,True,Probably same,0.8333333333333334,383.3,3407.1666666666665,8.123700096595973,2022-06-05 16:50:39,2.300523983021863,0.0,0.0
Main,15,False,False,1,12,Non-designer,False,j_AA,j_DD,False,Sure different,0.9166666666666666,227.8,2833.1666666666665,7.9426071806639476,2022-06-05 16:47:05,2.555907110132642,0.0,0.0
Main,15,False,True,1,12,Non-designer,False,r_AA,r_AA,True,Sure same,1.0,227.8,3130.5833333333335,8.03691476098003,2022-06-05 16:47:05,3.141592653589793,0.0,0.0
Main,15,True,False,1,36,Non-designer,False,q_BC,q_AD,False,Probably same,0.6111111111111112,227.8,3551.3888888888887,8.157847355711503,2022-06-05 16:47:05,1.7948894190962676,0.7043010752688172,1.9917183299828434
Main,15,True,True,1,12,Non-designer,False,r_AD,r_AD,True,Sure same,0.75,227.8,3468.4166666666665,8.135714053611931,2022-06-05 16:47:05,2.0943951023931953,0.0,0.0
Main,16,False,False,1,12,Graphic designer,True,n_AA,n_DD,False,Sure different,1.0,305.6,3476.8333333333335,8.140567530395614,2022-06-05 15:54:05,3.141592653589793,0.0,0.0
Main,16,False,True,1,12,Graphic designer,True,z_AA,z_AA,True,Sure same,0.8333333333333334,305.6,4090.25,8.308116529608418,2022-06-05 15:54:05,2.300523983021863,0.0,0.0
Main,16,True,False,1,36,Graphic designer,True,n_AB,n_AD,True,Sure same,0.75,305.6,3837.8611111111113,8.231242510561179,2022-06-05 15:54:05,2.0943951023931953,0.8655913978494624,2.3908505130984463
Main,16,True,True,1,12,Graphic designer,True,a_AD,a_AD,True,Probably same,0.9166666666666666,305.6,3877.75,8.25508853272732,2022-06-05 15:54:05,2.555907110132642,0.0,0.0
Main,17,False,False,1,12,Non-designer,False,c_AA,c_DD,False,Sure different,1.0,188.9,2889.75,7.9630614804123505,2022-06-05 15:51:33,3.141592653589793,0.0,0.0
Main,17,False,True,1,12,Non-designer,False,r_AA,r_AA,True,Probably different,0.8333333333333334,188.9,3067.6666666666665,8.009555502074699,2022-06-05 15:51:33,2.300523983021863,0.0,0.0
Main,17,True,False,1,36,Non-designer,False,j_AD,j_AB,True,Probably different,0.6111111111111112,188.9,3005.3611111111113,7.992859357595598,2022-06-05 15:51:33,1.7948894190962676,0.7161290322580645,2.0177916969069014
Main,17,True,True,1,12,Non-designer,False,b_AD,b_AD,True,Probably different,0.8333333333333334,188.9,3184.3333333333335,8.051615567882537,2022-06-05 15:51:33,2.300523983021863,0.0,0.0
Main,18,False,False,1,12,Letter designer,True,c_DD,c_AA,False,Sure different,1.0,227.8,3481.3333333333335,8.130108990063803,2022-06-05 15:27:09,3.141592653589793,0.0,0.0
Main,18,False,True,1,12,Letter designer,True,j_AA,j_AA,True,Sure same,1.0,227.8,3058.6666666666665,8.023236992269274,2022-06-05 15:27:09,3.141592653589793,0.0,0.0
Main,18,True,False,1,36,Letter designer,True,h_AB,h_AD,True,Sure same,0.7777777777777778,227.8,3544.5,8.150419589873492,2022-06-05 15:27:09,2.1598272970111707,0.8440860215053763,2.329762942169925
Main,18,True,True,1,12,Letter designer,True,b_AD,b_AD,True,Sure same,1.0,227.8,3294.1666666666665,8.093846148730595,2022-06-05 15:27:09,3.141592653589793,0.0,0.0
Main,19,False,False,1,12,Letter designer,True,e_DD,e_AA,False,Sure different,1.0,305.6,2872.3333333333335,7.961500479954513,2022-06-05 15:02:33,3.141592653589793,0.0,0.0
Main,19,False,True,1,12,Letter designer,True,e_AA,e_AA,True,Probably same,1.0,305.6,3626.9166666666665,8.1175369945152,2022-06-05 15:02:33,3.141592653589793,0.0,0.0
Main,19,True,False,1,36,Letter designer,True,b_BD,b_AD,False,Sure different,0.4722222222222222,305.6,3604.0555555555557,8.148206650775544,2022-06-05 15:02:33,1.515212153513979,0.42365591397849467,1.4175085555714992
Main,19,True,True,1,12,Letter designer,True,h_AD,h_AD,True,Probably different,0.8333333333333334,305.6,3360.0,8.1050954181623,2022-06-05 15:02:33,2.300523983021863,0.0,0.0
Main,20,False,False,1,12,Other designer,True,b_DD,b_AA,False,Sure different,0.8333333333333334,344.4,3384.6666666666665,8.118416113503542,2022-06-05 13:28:58,2.300523983021863,0.0,0.0
Main,20,False,True,1,12,Other designer,True,r_AA,r_AA,True,Probably same,0.6666666666666666,344.4,3500.5,8.151023113546303,2022-06-05 13:28:58,1.9106332362490186,0.0,0.0
Main,20,True,False,1,36,Other designer,True,e_AD,e_BC,False,Sure same,0.7222222222222222,344.4,3670.3611111111113,8.180884257216805,2022-06-05 13:28:58,2.031350318476219,0.8225806451612904,2.2720306913779655
Main,20,True,True,1,12,Other designer,True,h_AD,h_AD,True,Sure same,0.9166666666666666,344.4,4479.0,8.36993475598788,2022-06-05 13:28:58,2.555907110132642,0.0,0.0
Main,21,False,False,1,12,Non-designer,False,p_AA,p_DD,False,Sure same,0.9166666666666666,150.0,2934.8333333333335,7.976682639340833,2022-06-05 12:42:17,2.555907110132642,0.0,0.0
Main,21,False,True,1,12,Non-designer,False,a_AA,a_AA,True,Sure same,0.6666666666666666,150.0,3346.3333333333335,8.078951574833198,2022-06-05 12:42:17,1.9106332362490186,0.0,0.0
Main,21,True,False,1,36,Non-designer,False,e_AD,e_BC,False,Sure same,0.7777777777777778,150.0,3009.277777777778,8.001541855958003,2022-06-05 12:42:17,2.1598272970111707,0.8731182795698924,2.413186824436871
Main,21,True,True,1,12,Non-designer,False,q_AD,q_AD,True,Sure same,0.9166666666666666,150.0,3072.75,7.996061775647232,2022-06-05 12:42:17,2.555907110132642,0.0,0.0
Main,22,False,False,1,12,Non-designer,False,q_DD,q_AA,False,Sure same,0.8333333333333334,461.1,3956.6666666666665,8.258508940802358,2022-06-05 12:37:07,2.300523983021863,0.0,0.0
Main,22,False,True,1,12,Non-designer,False,j_AA,j_AA,True,Sure same,1.0,461.1,3594.5833333333335,8.178906031586228,2022-06-05 12:37:07,3.141592653589793,0.0,0.0
Main,22,True,False,1,36,Non-designer,False,p_AB,p_AD,True,Sure same,0.5833333333333334,461.1,3816.6388888888887,8.229969844965861,2022-06-05 12:37:07,1.738244406014586,0.5924731182795699,1.7568134816294594
Main,22,True,True,1,12,Non-designer,False,r_AD,r_AD,True,Sure same,0.6666666666666666,461.1,4033.3333333333335,8.287946004922711,2022-06-05 12:37:07,1.9106332362490186,0.0,0.0
Main,23,False,False,1,12,Graphic designer,True,a_DD,a_AA,False,Probably same,0.9166666666666666,538.9,4071.9166666666665,8.28818186148604,2022-06-05 10:06:58,2.555907110132642,0.0,0.0
Main,23,False,True,1,12,Graphic designer,True,p_AA,p_AA,True,Sure same,0.9166666666666666,538.9,3878.0833333333335,8.258695410246249,2022-06-05 10:06:58,2.555907110132642,0.0,0.0
Main,23,True,False,1,36,Graphic designer,True,e_AD,e_BD,False,Probably different,0.6944444444444444,538.9,8394.277777777777,8.422695222212674,2022-06-05 10:06:58,1.9702215666754914,0.613978494623656,1.8007752371924575
Main,23,True,True,1,12,Graphic designer,True,h_AD,h_AD,True,Sure different,0.8333333333333334,538.9,3842.75,8.247387857675925,2022-06-05 10:06:58,2.300523983021863,0.0,0.0
Main,24,False,False,1,12,Non-designer,False,q_AA,q_DD,False,Sure different,0.9166666666666666,188.9,3061.5,8.016821401409796,2022-06-05 06:16:20,2.555907110132642,0.0,0.0
Main,24,False,True,1,12,Non-designer,False,c_AA,c_AA,True,Probably same,0.9166666666666666,188.9,4226.833333333333,8.327406425566428,2022-06-05 06:16:20,2.555907110132642,0.0,0.0
Main,24,True,False,1,36,Non-designer,False,q_AD,q_BC,False,Sure different,0.7222222222222222,188.9,3678.8888888888887,8.17812657749367,2022-06-05 06:16:20,2.031350318476219,0.832258064516129,2.2976424433639577
Main,24,True,True,1,12,Non-designer,False,h_AD,h_AD,True,Probably different,0.5,188.9,4005.75,8.258877877288127,2022-06-05 06:16:20,1.5707963267948968,0.0,0.0
Main,25,False,False,1,12,Non-designer,False,b_DD,b_AA,False,Sure different,0.9166666666666666,150.0,3058.5,8.005404240529518,2022-06-05 05:39:27,2.555907110132642,0.0,0.0
Main,25,False,True,1,12,Non-designer,False,j_AA,j_AA,True,Probably same,1.0,150.0,2927.0833333333335,7.980333997860948,2022-06-05 05:39:27,3.141592653589793,0.0,0.0
Main,25,True,False,1,36,Non-designer,False,h_AD,h_AB,True,Probably same,0.5833333333333334,150.0,3138.4166666666665,8.04135984786168,2022-06-05 05:39:27,1.738244406014586,0.7419354838709677,2.075868916540763
Main,25,True,True,1,12,Non-designer,False,n_AD,n_AD,True,Sure different,0.9166666666666666,150.0,2970.5833333333335,7.994616912355362,2022-06-05 05:39:27,2.555907110132642,0.0,0.0
Main,26,False,False,1,12,Non-designer,False,j_DD,j_AA,False,Sure different,0.9166666666666666,383.3,3164.0833333333335,8.059220918744403,2022-06-05 03:24:30,2.555907110132642,0.0,0.0
Main,26,False,True,1,12,Non-designer,False,c_AA,c_AA,True,Sure same,0.75,383.3,3532.5,8.157565362368329,2022-06-05 03:24:30,2.0943951023931953,0.0,0.0
Main,26,True,False,1,36,Non-designer,False,h_AD,h_AB,True,Sure different,0.5555555555555556,383.3,3578.1388888888887,8.168763994675892,2022-06-05 03:24:30,1.6821373411358604,0.6408602150537634,1.8563830202732368
Main,26,True,True,1,12,Non-designer,False,e_AD,e_AD,True,Sure same,0.9166666666666666,383.3,3403.3333333333335,8.127510196239925,2022-06-05 03:24:30,2.555907110132642,0.0,0.0
Main,27,False,False,1,12,Non-designer,False,p_AA,p_DD,False,Sure different,0.9166666666666666,188.9,2996.1666666666665,8.002220216366513,2022-06-04 23:57:00,2.555907110132642,0.0,0.0
Main,27,False,True,1,12,Non-designer,False,b_AA,b_AA,True,Probably same,1.0,188.9,3186.3333333333335,8.061100005066416,2022-06-04 23:57:00,3.141592653589793,0.0,0.0
Main,27,True,False,1,36,Non-designer,False,t_BD,t_AD,False,Sure different,0.5833333333333334,188.9,3889.4444444444443,8.1995392814977,2022-06-04 23:57:00,1.738244406014586,0.7580645161290323,2.113121629569745
Main,27,True,True,1,12,Non-designer,False,t_AD,t_AD,True,Probably same,1.0,188.9,3518.0833333333335,8.15092867491594,2022-06-04 23:57:00,3.141592653589793,0.0,0.0
Main,28,False,False,1,12,Other designer,True,t_AA,t_DD,False,Sure different,1.0,227.8,3167.8333333333335,8.059344126510245,2022-06-04 21:01:57,3.141592653589793,0.0,0.0
Main,28,False,True,1,12,Other designer,True,z_AA,z_AA,True,Sure same,0.5833333333333334,227.8,3814.5833333333335,8.239495384177252,2022-06-04 21:01:57,1.738244406014586,0.0,0.0
Main,28,True,False,1,36,Other designer,True,z_AD,z_BC,False,Sure different,0.8055555555555556,227.8,3821.277777777778,8.230966482783586,2022-06-04 21:01:57,2.2282598831765403,0.8086021505376344,2.235980817521384
Main,28,True,True,1,12,Other designer,True,a_AD,a_AD,True,Probably same,0.8333333333333334,227.8,3925.8333333333335,8.26554403540854,2022-06-04 21:01:57,2.300523983021863,0.0,0.0
Main,29,False,False,1,12,Non-designer,False,r_AA,r_DD,False,Sure different,0.8333333333333334,150.0,2967.5,7.990350417123735,2022-06-04 20:40:34,2.300523983021863,0.0,0.0
Main,29,False,True,1,12,Non-designer,False,r_AA,r_AA,True,Sure same,0.9166666666666666,150.0,2705.9166666666665,7.8787067508514745,2022-06-04 20:40:34,2.555907110132642,0.0,0.0
Main,29,True,False,1,36,Non-designer,False,j_BC,j_AD,False,Sure same,0.5555555555555556,150.0,2943.1666666666665,7.9705071750388266,2022-06-04 20:40:34,1.6821373411358604,0.7666666666666666,2.133332571338752
Main,29,True,True,1,12,Non-designer,False,p_AD,p_AD,True,Sure same,1.0,150.0,2679.9166666666665,7.883079922886947,2022-06-04 20:40:34,3.141592653589793,0.0,0.0
Main,30,False,False,1,12,Typographer,True,c_AA,c_DD,False,Sure different,1.0,188.9,3089.5833333333335,8.028688398963602,2022-06-04 20:14:21,3.141592653589793,0.0,0.0
Main,30,False,True,1,12,Typographer,True,t_AA,t_AA,True,Probably different,0.8333333333333334,188.9,2510.3333333333335,7.82255835023873,2022-06-04 20:14:21,2.300523983021863,0.0,0.0
Main,30,True,False,1,36,Typographer,True,a_AB,a_AD,True,Sure same,0.7222222222222222,188.9,3014.3333333333335,7.999487468437528,2022-06-04 20:14:21,2.031350318476219,0.8580645161290323,2.3690366929646283
Main,30,True,True,1,12,Typographer,True,p_AD,p_AD,True,Sure same,1.0,188.9,2517.0833333333335,7.81962966610783,2022-06-04 20:14:21,3.141592653589793,0.0,0.0
Main,31,False,False,1,12,Letter designer,True,e_DD,e_AA,False,Probably same,0.9166666666666666,188.9,3069.9166666666665,8.00490614478843,2022-06-04 19:48:24,2.555907110132642,0.0,0.0
Main,31,False,True,1,12,Letter designer,True,z_AA,z_AA,True,Probably same,0.9166666666666666,188.9,3736.1666666666665,8.197396994091951,2022-06-04 19:48:24,2.555907110132642,0.0,0.0
Main,31,True,False,1,36,Letter designer,True,c_AB,c_AD,True,Sure different,0.8055555555555556,188.9,3607.222222222222,8.160991741623612,2022-06-04 19:48:24,2.2282598831765403,0.8333333333333334,2.300523983021863
Main,31,True,True,1,12,Letter designer,True,t_AD,t_AD,True,Probably different,0.75,188.9,3454.25,8.106639334970845,2022-06-04 19:48:24,2.0943951023931953,0.0,0.0
Main,32,False,False,1,12,Non-designer,False,b_AA,b_DD,False,Sure different,1.0,227.8,3032.0,8.015227862960879,2022-06-04 19:38:05,3.141592653589793,0.0,0.0
Main,32,False,True,1,12,Non-designer,False,r_AA,r_AA,True,Sure same,0.8333333333333334,227.8,3688.6666666666665,8.169065901747885,2022-06-04 19:38:05,2.300523983021863,0.0,0.0
Main,32,True,False,1,36,Non-designer,False,a_AD,a_BD,False,Sure different,0.6388888888888888,227.8,3285.5833333333335,8.090718036613378,2022-06-04 19:38:05,1.8522764000257417,0.735483870967742,2.0611838099314235
Main,32,True,True,1,12,Non-designer,False,q_AD,q_AD,True,Sure same,0.75,227.8,3212.25,8.070736915777,2022-06-04 19:38:05,2.0943951023931953,0.0,0.0
Main,33,False,False,1,12,Non-designer,False,a_DD,a_AA,False,Sure different,1.0,227.8,3246.5,8.076588393565519,2022-06-04 19:33:21,3.141592653589793,0.0,0.0
Main,33,False,True,1,12,Non-designer,False,q_AA,q_AA,True,Probably different,0.9166666666666666,227.8,3323.4166666666665,8.099162071108179,2022-06-04 19:33:21,2.555907110132642,0.0,0.0
Main,33,True,False,1,36,Non-designer,False,h_BC,h_AD,False,Sure different,0.6111111111111112,227.8,3509.1111111111113,8.1505001138433,2022-06-04 19:33:21,1.7948894190962676,0.6978494623655914,1.9776250938379092
Main,33,True,True,1,12,Non-designer,False,b_AD,b_AD,True,Sure same,1.0,227.8,3313.0833333333335,8.095934706902888,2022-06-04 19:33:21,3.141592653589793,0.0,0.0
Main,34,False,False,1,12,Other designer,True,h_DD,h_AA,False,Sure different,0.9166666666666666,383.3,4457.0,8.358434662071868,2022-06-04 19:22:00,2.555907110132642,0.0,0.0
Main,34,False,True,1,12,Other designer,True,c_AA,c_AA,True,Probably same,0.9166666666666666,383.3,3543.5,8.164282268214274,2022-06-04 19:22:00,2.555907110132642,0.0,0.0
Main,34,True,False,1,36,Other designer,True,j_AD,j_AB,True,Probably different,0.4722222222222222,383.3,3594.777777777778,8.175207401698785,2022-06-04 19:22:00,1.515212153513979,0.5182795698924731,1.6073636154611817
Main,34,True,True,1,12,Other designer,True,r_AD,r_AD,True,Sure same,0.9166666666666666,383.3,3154.0,8.054777233415953,2022-06-04 19:22:00,2.555907110132642,0.0,0.0
Main,35,False,False,1,12,Graphic designer,True,a_DD,a_AA,False,Sure different,0.9166666666666666,422.2,4082.4166666666665,8.29772913761853,2022-06-04 18:33:12,2.555907110132642,0.0,0.0
Main,35,False,True,1,12,Graphic designer,True,q_AA,q_AA,True,Sure same,0.8333333333333334,422.2,3987.5,8.286185073438114,2022-06-04 18:33:12,2.300523983021863,0.0,0.0
Main,35,True,False,1,36,Graphic designer,True,j_AD,j_BC,False,Sure same,0.5,422.2,4286.777777777777,8.347736228842097,2022-06-04 18:33:12,1.5707963267948968,0.5236559139784945,1.618125823092143
Main,35,True,True,1,12,Graphic designer,True,c_AD,c_AD,True,Sure same,0.6666666666666666,422.2,4208.25,8.323432603162528,2022-06-04 18:33:12,1.9106332362490186,0.0,0.0
Main,36,False,False,1,12,Other designer,True,b_AA,b_DD,False,Sure different,1.0,188.9,2722.6666666666665,7.90873366724414,2022-06-04 18:12:59,3.141592653589793,0.0,0.0
Main,36,False,True,1,12,Other designer,True,b_AA,b_AA,True,Sure same,0.8333333333333334,188.9,2959.6666666666665,7.989979079978259,2022-06-04 18:12:59,2.300523983021863,0.0,0.0
Main,36,True,False,1,36,Other designer,True,r_AB,r_AD,True,Sure same,0.6666666666666666,188.9,3333.277777777778,8.086580272432911,2022-06-04 18:12:59,1.9106332362490186,0.7150537634408602,2.015408207066215
Main,36,True,True,1,12,Other designer,True,q_AD,q_AD,True,Sure same,0.75,188.9,3000.75,8.000676937110791,2022-06-04 18:12:59,2.0943951023931953,0.0,0.0
Main,37,False,False,1,12,Graphic designer,True,a_DD,a_AA,False,Sure different,0.9166666666666666,266.7,3098.5833333333335,8.023147570621203,2022-06-04 18:11:57,2.555907110132642,0.0,0.0
Main,37,False,True,1,12,Graphic designer,True,a_AA,a_AA,True,Sure same,0.9166666666666666,266.7,3602.9166666666665,8.167899000453893,2022-06-04 18:11:57,2.555907110132642,0.0,0.0
Main,37,True,False,1,36,Graphic designer,True,p_AB,p_AD,True,Sure same,0.8055555555555556,266.7,3467.722222222222,8.140107807667057,2022-06-04 18:11:57,2.2282598831765403,0.8301075268817204,2.2919013789771494
Main,37,True,True,1,12,Graphic designer,True,j_AD,j_AD,True,Sure same,0.9166666666666666,266.7,3639.5833333333335,8.188266430544855,2022-06-04 18:11:57,2.555907110132642,0.0,0.0
Main,38,False,False,1,12,Non-designer,False,c_DD,c_AA,False,Sure different,1.0,500.0,3111.0833333333335,8.041125060699777,2022-06-04 17:49:58,3.141592653589793,0.0,0.0
Main,38,False,True,1,12,Non-designer,False,p_AA,p_AA,True,Probably different,0.75,500.0,3194.4166666666665,8.055552848764181,2022-06-04 17:49:58,2.0943951023931953,0.0,0.0
Main,38,True,False,1,36,Non-designer,False,a_AB,a_AD,True,Probably same,0.1388888888888889,500.0,3092.0,8.023015068609947,2022-06-04 17:49:58,0.7637864963978316,0.16559139784946236,0.8381796849976719
Main,38,True,True,1,12,Non-designer,False,r_AD,r_AD,True,Probably same,0.9166666666666666,500.0,2851.6666666666665,7.953262455409802,2022-06-04 17:49:58,2.555907110132642,0.0,0.0
Main,39,False,False,1,12,Typographer,True,h_AA,h_DD,False,Sure different,1.0,150.0,2887.4166666666665,7.942185768326816,2022-06-04 17:49:50,3.141592653589793,0.0,0.0
Main,39,False,True,1,12,Typographer,True,r_AA,r_AA,True,Probably same,0.8333333333333334,150.0,3156.3333333333335,8.05087096002456,2022-06-04 17:49:50,2.300523983021863,0.0,0.0
Main,39,True,False,1,36,Typographer,True,h_AB,h_AD,True,Probably same,0.75,150.0,3191.6111111111113,8.052523682461093,2022-06-04 17:49:50,2.0943951023931953,0.8344086021505376,2.3034129685921214
Main,39,True,True,1,12,Typographer,True,z_AD,z_AD,True,Probably same,0.8333333333333334,150.0,3291.8333333333335,8.09173342679185,2022-06-04 17:49:50,2.300523983021863,0.0,0.0
Main,40,False,False,1,12,Graphic designer,True,a_DD,a_AA,False,Sure different,0.9166666666666666,266.7,3342.25,8.096676286111814,2022-06-04 17:01:01,2.555907110132642,0.0,0.0
Main,40,False,True,1,12,Graphic designer,True,j_AA,j_AA,True,Sure same,0.75,266.7,3577.0833333333335,8.176118461837158,2022-06-04 17:01:01,2.0943951023931953,0.0,0.0
Main,40,True,False,1,36,Graphic designer,True,n_AD,n_BC,False,Sure different,0.6388888888888888,266.7,3329.9444444444443,8.10130187726473,2022-06-04 17:01:01,1.8522764000257417,0.767741935483871,2.135876906493521
Main,40,True,True,1,12,Graphic designer,True,h_AD,h_AD,True,Probably same,0.6666666666666666,266.7,3435.75,8.131964362452326,2022-06-04 17:01:01,1.9106332362490186,0.0,0.0
Main,41,False,False,1,12,Non-designer,False,p_AA,p_DD,False,Sure different,1.0,577.8,3432.0,8.139285148918294,2022-06-04 16:54:42,3.141592653589793,0.0,0.0
Main,41,False,True,1,12,Non-designer,False,q_AA,q_AA,True,Sure different,0.9166666666666666,577.8,3412.8333333333335,8.130586673752235,2022-06-04 16:54:42,2.555907110132642,0.0,0.0
Main,41,True,False,1,36,Non-designer,False,j_BC,j_AD,False,Sure same,0.4722222222222222,577.8,3885.472222222222,8.237986692835428,2022-06-04 16:54:42,1.515212153513979,0.4612903225806452,1.493299423817873
Main,41,True,True,1,12,Non-designer,False,b_AD,b_AD,True,Sure same,0.9166666666666666,577.8,3545.0833333333335,8.169234123093798,2022-06-04 16:54:42,2.555907110132642,0.0,0.0
Main,42,False,False,1,12,Non-designer,False,b_AA,b_DD,False,Sure different,0.8333333333333334,305.6,3047.4166666666665,8.016962391595829,2022-06-04 16:35:07,2.300523983021863,0.0,0.0
Main,42,False,True,1,12,Non-designer,False,t_AA,t_AA,True,Sure different,0.4166666666666667,305.6,3503.8333333333335,8.13691834724398,2022-06-04 16:35:07,1.4033482475752073,0.0,0.0
Main,42,True,False,1,36,Non-designer,False,z_AB,z_AD,True,Sure same,0.5,305.6,3103.25,8.036490533052929,2022-06-04 16:35:07,1.5707963267948968,0.5204301075268817,1.6116679201434532
Main,42,True,True,1,12,Non-designer,False,b_AD,b_AD,True,Probably same,0.5833333333333334,305.6,3468.4166666666665,8.1389565646122,2022-06-04 16:35:07,1.738244406014586,0.0,0.0
Main,43,False,False,1,12,Graphic designer,True,c_DD,c_AA,False,Sure different,1.0,188.9,2708.6666666666665,7.902734539279319,2022-06-04 16:34:34,3.141592653589793,0.0,0.0
Main,43,False,True,1,12,Graphic designer,True,r_AA,r_AA,True,Probably same,0.8333333333333334,188.9,3904.6666666666665,8.254394430082728,2022-06-04 16:34:34,2.300523983021863,0.0,0.0
Main,43,True,False,1,36,Graphic designer,True,e_AD,e_BD,False,Probably same,0.6388888888888888,188.9,3751.1388888888887,8.180853777453036,2022-06-04 16:34:34,1.8522764000257417,0.7537634408602152,2.1031084236686577
Main,43,True,True,1,12,Graphic designer,True,n_AD,n_AD,True,Probably same,0.6666666666666666,188.9,4973.333333333333,8.395517112208976,2022-06-04 16:34:34,1.9106332362490186,0.0,0.0
Main,44,False,False,1,12,Graphic designer,True,j_AA,j_DD,False,Sure different,0.8333333333333334,188.9,3010.6666666666665,8.005261738515673,2022-06-04 15:39:21,2.300523983021863,0.0,0.0
Main,44,False,True,1,12,Graphic designer,True,h_AA,h_AA,True,Sure same,0.5,188.9,2786.0,7.928578978065882,2022-06-04 15:39:21,1.5707963267948968,0.0,0.0
Main,44,True,False,1,36,Graphic designer,True,t_AD,t_BD,False,Probably different,0.7222222222222222,188.9,3129.277777777778,8.037933344182969,2022-06-04 15:39:21,2.031350318476219,0.7870967741935484,2.1824151185602156
Main,44,True,True,1,12,Graphic designer,True,p_AD,p_AD,True,Probably same,1.0,188.9,3148.0833333333335,8.03151904625856,2022-06-04 15:39:21,3.141592653589793,0.0,0.0
Main,45,False,False,1,12,Other designer,True,a_DD,a_AA,False,Sure different,1.0,227.8,2874.25,7.944865615617469,2022-06-04 15:38:26,3.141592653589793,0.0,0.0
Main,45,False,True,1,12,Other designer,True,j_AA,j_AA,True,Sure same,0.8333333333333334,227.8,3843.6666666666665,8.197117656843341,2022-06-04 15:38:26,2.300523983021863,0.0,0.0
Main,45,True,False,1,36,Other designer,True,n_BC,n_AD,False,Sure different,0.6944444444444444,227.8,3301.9444444444443,8.069339860273418,2022-06-04 15:38:26,1.9702215666754914,0.7612903225806451,2.1206713102325425
Main,45,True,True,1,12,Other designer,True,h_AD,h_AD,True,Sure same,0.9166666666666666,227.8,3324.25,8.096630678756512,2022-06-04 15:38:26,2.555907110132642,0.0,0.0
Main,46,False,False,1,12,Graphic designer,True,b_DD,b_AA,False,Sure different,1.0,227.8,3416.25,8.12477401969566,2022-06-04 14:52:57,3.141592653589793,0.0,0.0
Main,46,False,True,1,12,Graphic designer,True,b_AA,b_AA,True,Probably same,0.9166666666666666,227.8,3850.8333333333335,8.235518145544878,2022-06-04 14:52:57,2.555907110132642,0.0,0.0
Main,46,True,False,1,36,Graphic designer,True,b_AD,b_AB,True,Sure same,0.75,227.8,3785.5555555555557,8.208499594646506,2022-06-04 14:52:57,2.0943951023931953,0.8419354838709676,2.3238514399722576
Main,46,True,True,1,12,Graphic designer,True,p_AD,p_AD,True,Sure different,0.9166666666666666,227.8,3679.0,8.175846490977605,2022-06-04 14:52:57,2.555907110132642,0.0,0.0
Main,47,False,False,1,12,Non-designer,False,c_DD,c_AA,False,Sure different,1.0,188.9,3239.5833333333335,8.078545120778555,2022-06-04 14:36:15,3.141592653589793,0.0,0.0
Main,47,False,True,1,12,Non-designer,False,n_AA,n_AA,True,Sure same,0.9166666666666666,188.9,3139.8333333333335,8.038552485377757,2022-06-04 14:36:15,2.555907110132642,0.0,0.0
Main,47,True,False,1,36,Non-designer,False,n_AB,n_AD,True,Sure same,0.5277777777777778,188.9,3537.3611111111113,8.148827912644487,2022-06-04 14:36:15,1.626380500075814,0.6440860215053763,1.8631136780958002
Main,47,True,True,1,12,Non-designer,False,z_AD,z_AD,True,Sure same,1.0,188.9,3339.4166666666665,8.098161640787012,2022-06-04 14:36:15,3.141592653589793,0.0,0.0
Main,48,False,False,1,12,Graphic designer,True,r_AA,r_DD,False,Sure different,1.0,305.6,3068.6666666666665,8.003773826305013,2022-06-04 14:30:50,3.141592653589793,0.0,0.0
Main,48,False,True,1,12,Graphic designer,True,e_AA,e_AA,True,Sure same,0.75,305.6,3082.5,8.002351768681924,2022-06-04 14:30:50,2.0943951023931953,0.0,0.0
Main,48,True,False,1,36,Graphic designer,True,t_BC,t_AD,False,Sure same,0.6111111111111112,305.6,2900.25,7.957935952120831,2022-06-04 14:30:50,1.7948894190962676,0.7408602150537634,2.0734132152810236
Main,48,True,True,1,12,Graphic designer,True,n_AD,n_AD,True,Probably different,0.8333333333333334,305.6,2880.1666666666665,7.950980427372504,2022-06-04 14:30:50,2.300523983021863,0.0,0.0
Main,49,False,False,1,12,Graphic designer,True,n_DD,n_AA,False,Sure different,1.0,383.3,2905.8333333333335,7.966929192546171,2022-06-04 13:32:02,3.141592653589793,0.0,0.0
Main,49,False,True,1,12,Graphic designer,True,z_AA,z_AA,True,Sure same,0.9166666666666666,383.3,3204.0833333333335,8.0383515726428,2022-06-04 13:32:02,2.555907110132642,0.0,0.0
Main,49,True,False,1,36,Graphic designer,True,h_BD,h_AD,False,Sure same,0.6666666666666666,383.3,2911.6111111111113,7.966756143038503,2022-06-04 13:32:02,1.9106332362490186,0.7000000000000001,1.9823131728623846
Main,49,True,True,1,12,Graphic designer,True,q_AD,q_AD,True,Sure same,1.0,383.3,2703.6666666666665,7.898254821071091,2022-06-04 13:32:02,3.141592653589793,0.0,0.0
Main,50,False,False,1,12,Graphic designer,True,e_DD,e_AA,False,Sure different,0.9166666666666666,305.6,3142.4166666666665,8.044267662125355,2022-06-04 12:35:22,2.555907110132642,0.0,0.0
Main,50,False,True,1,12,Graphic designer,True,h_AA,h_AA,True,Sure same,0.9166666666666666,305.6,2735.0833333333335,7.910336284660855,2022-06-04 12:35:22,2.555907110132642,0.0,0.0
Main,50,True,False,1,36,Graphic designer,True,j_AD,j_BD,False,Probably same,0.4444444444444444,305.6,3393.9166666666665,8.100827925877972,2022-06-04 12:35:22,1.4594553124539327,0.567741935483871,1.706698146969272
Main,50,True,True,1,12,Graphic designer,True,p_AD,p_AD,True,Sure same,0.9166666666666666,305.6,3128.9166666666665,8.033626410382077,2022-06-04 12:35:22,2.555907110132642,0.0,0.0
Main,51,False,False,1,12,Graphic designer,True,n_DD,n_AA,False,Sure different,0.9166666666666666,150.0,2528.25,7.833274658681572,2022-06-04 11:52:51,2.555907110132642,0.0,0.0
Main,51,False,True,1,12,Graphic designer,True,r_AA,r_AA,True,Probably same,1.0,150.0,2964.6666666666665,7.969382327033199,2022-06-04 11:52:51,3.141592653589793,0.0,0.0
Main,51,True,False,1,36,Graphic designer,True,t_AD,t_BD,False,Probably different,0.75,150.0,2846.8611111111113,7.9454294451111025,2022-06-04 11:52:51,2.0943951023931953,0.8709677419354839,2.40674884435019
Main,51,True,True,1,12,Graphic designer,True,n_AD,n_AD,True,Probably same,0.75,150.0,2681.75,7.892489885990792,2022-06-04 11:52:51,2.0943951023931953,0.0,0.0
Main,52,False,False,1,12,Non-designer,False,j_DD,j_AA,False,Sure different,1.0,150.0,2969.9166666666665,7.993937654102595,2022-06-04 11:09:58,3.141592653589793,0.0,0.0
Main,52,False,True,1,12,Non-designer,False,n_AA,n_AA,True,Probably same,0.8333333333333334,150.0,4026.0833333333335,8.24642505774613,2022-06-04 11:09:58,2.300523983021863,0.0,0.0
Main,52,True,False,1,36,Non-designer,False,p_AD,p_BC,False,Probably same,0.6111111111111112,150.0,3638.5555555555557,8.171832415567954,2022-06-04 11:09:58,1.7948894190962676,0.7387096774193549,2.0685117162869475
Main,52,True,True,1,12,Non-designer,False,a_AD,a_AD,True,Probably different,0.8333333333333334,150.0,4047.4166666666665,8.288005056743293,2022-06-04 11:09:58,2.300523983021863,0.0,0.0
Main,53,False,False,1,12,Non-designer,False,t_AA,t_DD,False,Sure different,1.0,383.3,3206.1666666666665,8.05198637890679,2022-06-04 10:41:48,3.141592653589793,0.0,0.0
Main,53,False,True,1,12,Non-designer,False,t_AA,t_AA,True,Probably different,0.75,383.3,2995.0,8.001437482298456,2022-06-04 10:41:48,2.0943951023931953,0.0,0.0
Main,53,True,False,1,36,Non-designer,False,n_BD,n_AD,False,Probably different,0.4444444444444444,383.3,3162.5,8.054485769871649,2022-06-04 10:41:48,1.4594553124539327,0.4913978494623656,1.5535911768955233
Main,53,True,True,1,12,Non-designer,False,z_AD,z_AD,True,Sure same,1.0,383.3,3191.5,8.060438179828775,2022-06-04 10:41:48,3.141592653589793,0.0,0.0
Main,54,False,False,1,12,Non-designer,False,a_DD,a_AA,False,Sure different,1.0,227.8,3338.0833333333335,8.08986457780106,2022-06-04 10:04:17,3.141592653589793,0.0,0.0
Main,54,False,True,1,12,Non-designer,False,r_AA,r_AA,True,Sure same,1.0,227.8,3334.6666666666665,8.07528434419753,2022-06-04 10:04:17,3.141592653589793,0.0,0.0
Main,54,True,False,1,36,Non-designer,False,t_AB,t_AD,True,Probably different,0.6666666666666666,227.8,4211.555555555556,8.200403900298816,2022-06-04 10:04:17,1.9106332362490186,0.8172043010752688,2.2580395359439955
Main,54,True,True,1,12,Non-designer,False,n_AD,n_AD,True,Sure same,1.0,227.8,3272.1666666666665,8.083558963933033,2022-06-04 10:04:17,3.141592653589793,0.0,0.0
Main,55,False,False,1,12,Non-designer,False,q_DD,q_AA,False,Sure different,0.9166666666666666,500.0,3898.0,8.256019557438877,2022-06-04 09:48:50,2.555907110132642,0.0,0.0
Main,55,False,True,1,12,Non-designer,False,e_AA,e_AA,True,Sure same,0.5833333333333334,500.0,4462.166666666667,8.378026169088649,2022-06-04 09:48:50,1.738244406014586,0.0,0.0
Main,55,True,False,1,36,Non-designer,False,n_AD,n_BD,False,Probably different,0.6666666666666666,500.0,4462.611111111111,8.378822775153928,2022-06-04 09:48:50,1.9106332362490186,0.5623655913978495,1.6958532203093084
Main,55,True,True,1,12,Non-designer,False,a_AD,a_AD,True,Sure same,0.6666666666666666,500.0,4607.416666666667,8.406074927706078,2022-06-04 09:48:50,1.9106332362490186,0.0,0.0
Main,56,False,False,1,12,Non-designer,False,j_AA,j_DD,False,Sure different,0.8333333333333334,150.0,4240.25,8.2191097602224,2022-06-04 09:30:10,2.300523983021863,0.0,0.0
Main,56,False,True,1,12,Non-designer,False,a_AA,a_AA,True,Sure same,0.9166666666666666,150.0,3409.5833333333335,8.103919050249791,2022-06-04 09:30:10,2.555907110132642,0.0,0.0
Main,56,True,False,1,36,Non-designer,False,e_AD,e_BC,False,Sure same,0.75,150.0,4113.055555555556,8.223013045595891,2022-06-04 09:30:10,2.0943951023931953,0.8559139784946237,2.362893730982544
Main,56,True,True,1,12,Non-designer,False,q_AD,q_AD,True,Sure same,0.8333333333333334,150.0,3083.8333333333335,8.013681028825973,2022-06-04 09:30:10,2.300523983021863,0.0,0.0
Main,57,False,False,1,12,Non-designer,False,a_AA,a_DD,False,Sure different,1.0,266.7,3039.3333333333335,8.01360811784693,2022-06-04 09:29:24,3.141592653589793,0.0,0.0
Main,57,False,True,1,12,Non-designer,False,z_AA,z_AA,True,Sure same,0.5,266.7,3078.0,8.023778951584866,2022-06-04 09:29:24,1.5707963267948968,0.0,0.0
Main,57,True,False,1,36,Non-designer,False,h_BD,h_AD,False,Sure different,0.6666666666666666,266.7,3199.9166666666665,8.059986090440663,2022-06-04 09:29:24,1.9106332362490186,0.6924731182795699,1.9659458962093599
Main,57,True,True,1,12,Non-designer,False,a_AD,a_AD,True,Sure same,0.75,266.7,3215.8333333333335,8.067259520707829,2022-06-04 09:29:24,2.0943951023931953,0.0,0.0
Main,58,False,False,1,12,Non-designer,False,r_AA,r_DD,False,Probably different,0.9166666666666666,383.3,3113.0,8.039013667591119,2022-06-04 09:23:32,2.555907110132642,0.0,0.0
Main,58,False,True,1,12,Non-designer,False,n_AA,n_AA,True,Sure same,0.8333333333333334,383.3,3158.9166666666665,8.055198035976785,2022-06-04 09:23:32,2.300523983021863,0.0,0.0
Main,58,True,False,1,36,Non-designer,False,p_AB,p_AD,True,Sure same,0.6666666666666666,383.3,3330.8333333333335,8.100900150657694,2022-06-04 09:23:32,1.9106332362490186,0.610752688172043,1.7941542510969948
Main,58,True,True,1,12,Non-designer,False,j_AD,j_AD,True,Sure same,0.8333333333333334,383.3,3941.1666666666665,8.249257808707192,2022-06-04 09:23:32,2.300523983021863,0.0,0.0
Main,59,False,False,1,12,Non-designer,False,c_AA,c_DD,False,Sure different,1.0,422.2,3099.0,8.036265886297132,2022-06-04 08:39:44,3.141592653589793,0.0,0.0
Main,59,False,True,1,12,Non-designer,False,t_AA,t_AA,True,Probably same,1.0,422.2,3586.25,8.16936115691725,2022-06-04 08:39:44,3.141592653589793,0.0,0.0
Main,59,True,False,1,36,Non-designer,False,r_AD,r_BD,False,Sure same,0.6944444444444444,422.2,3353.8888888888887,8.106026526671506,2022-06-04 08:39:44,1.9702215666754914,0.7172043010752688,2.0201779130961883
Main,59,True,True,1,12,Non-designer,False,e_AD,e_AD,True,Sure same,0.8333333333333334,422.2,3418.0,8.126279080665478,2022-06-04 08:39:44,2.300523983021863,0.0,0.0
Main,60,False,False,1,12,Non-designer,False,c_DD,c_AA,False,Sure different,0.8333333333333334,344.4,3591.8333333333335,8.169865069520442,2022-06-04 08:24:03,2.300523983021863,0.0,0.0
Main,60,False,True,1,12,Non-designer,False,e_AA,e_AA,True,Sure same,0.9166666666666666,344.4,3630.9166666666665,8.182428868422281,2022-06-04 08:24:03,2.555907110132642,0.0,0.0
Main,60,True,False,1,36,Non-designer,False,b_AD,b_AB,True,Sure same,0.5277777777777778,344.4,3967.9444444444443,8.24448399612934,2022-06-04 08:24:03,1.626380500075814,0.578494623655914,1.7284376821940357
Main,60,True,True,1,12,Non-designer,False,j_AD,j_AD,True,Sure same,0.5833333333333334,344.4,3982.6666666666665,8.285505832561805,2022-06-04 08:24:03,1.738244406014586,0.0,0.0
Main,61,False,False,1,12,Letter designer,True,t_DD,t_AA,False,Sure different,1.0,188.9,3392.4166666666665,8.116495397216532,2022-06-04 07:54:12,3.141592653589793,0.0,0.0
Main,61,False,True,1,12,Letter designer,True,z_AA,z_AA,True,Sure same,0.75,188.9,3674.4166666666665,8.17639816574878,2022-06-04 07:54:12,2.0943951023931953,0.0,0.0
Main,61,True,False,1,36,Letter designer,True,q_BC,q_AD,False,Probably different,0.7777777777777778,188.9,3537.472222222222,8.119650381224671,2022-06-04 07:54:12,2.1598272970111707,0.8365591397849463,2.309213608089439
Main,61,True,True,1,12,Letter designer,True,h_AD,h_AD,True,Sure same,0.75,188.9,4300.75,8.275530448243673,2022-06-04 07:54:12,2.0943951023931953,0.0,0.0
Main,62,False,False,1,12,Non-designer,False,z_DD,z_AA,False,Sure different,0.9166666666666666,266.7,2947.25,7.981533491353954,2022-06-04 07:22:25,2.555907110132642,0.0,0.0
Main,62,False,True,1,12,Non-designer,False,r_AA,r_AA,True,Probably same,0.8333333333333334,266.7,3333.0,8.102603626720903,2022-06-04 07:22:25,2.300523983021863,0.0,0.0
Main,62,True,False,1,36,Non-designer,False,b_BD,b_AD,False,Probably different,0.5,266.7,3523.4166666666665,8.135508860710205,2022-06-04 07:22:25,1.5707963267948968,0.5698924731182795,1.7110405520520569
Main,62,True,True,1,12,Non-designer,False,z_AD,z_AD,True,Probably same,0.9166666666666666,266.7,3278.6666666666665,8.085508350209532,2022-06-04 07:22:25,2.555907110132642,0.0,0.0
Main,63,False,False,1,12,Non-designer,False,j_AA,j_DD,False,Sure different,0.8333333333333334,266.7,4404.5,8.343599713793152,2022-06-04 07:19:24,2.300523983021863,0.0,0.0
Main,63,False,True,1,12,Non-designer,False,r_AA,r_AA,True,Sure same,0.9166666666666666,266.7,3718.5,8.207352028497283,2022-06-04 07:19:24,2.555907110132642,0.0,0.0
Main,63,True,False,1,36,Non-designer,False,n_AD,n_BC,False,Sure different,0.5555555555555556,266.7,4130.416666666667,8.290683181341281,2022-06-04 07:19:24,1.6821373411358604,0.6268817204301075,1.827365409111136
Main,63,True,True,1,12,Non-designer,False,q_AD,q_AD,True,Sure same,0.8333333333333334,266.7,3532.0833333333335,8.147106491673417,2022-06-04 07:19:24,2.300523983021863,0.0,0.0
Main,64,False,False,1,12,Non-designer,False,b_DD,b_AA,False,Sure different,1.0,150.0,3487.6666666666665,8.151884851688626,2022-06-04 07:07:37,3.141592653589793,0.0,0.0
Main,64,False,True,1,12,Non-designer,False,q_AA,q_AA,True,Sure same,0.75,150.0,4259.916666666667,8.33827637502403,2022-06-04 07:07:37,2.0943951023931953,0.0,0.0
Main,64,True,False,1,36,Non-designer,False,r_AD,r_BD,False,Sure different,0.6111111111111112,150.0,4009.3055555555557,8.270710910282055,2022-06-04 07:07:37,1.7948894190962676,0.7537634408602152,2.1031084236686577
Main,64,True,True,1,12,Non-designer,False,t_AD,t_AD,True,Sure same,0.9166666666666666,150.0,4337.0,8.322161643594095,2022-06-04 07:07:37,2.555907110132642,0.0,0.0
Main,65,False,False,1,12,Non-designer,False,e_AA,e_DD,False,Probably same,0.9166666666666666,266.7,3444.9166666666665,8.114463075424077,2022-06-04 07:07:22,2.555907110132642,0.0,0.0
Main,65,False,True,1,12,Non-designer,False,c_AA,c_AA,True,Sure same,0.9166666666666666,266.7,3702.25,8.19229810284102,2022-06-04 07:07:22,2.555907110132642,0.0,0.0
Main,65,True,False,1,36,Non-designer,False,h_BC,h_AD,False,Sure different,0.7222222222222222,266.7,3451.4166666666665,8.13043374064324,2022-06-04 07:07:22,2.031350318476219,0.7720430107526882,2.146095728016446
Main,65,True,True,1,12,Non-designer,False,a_AD,a_AD,True,Sure same,0.75,266.7,3505.0,8.15290910245667,2022-06-04 07:07:22,2.0943951023931953,0.0,0.0
Main,66,False,False,1,12,Non-designer,False,t_DD,t_AA,False,Sure different,0.9166666666666666,422.2,3419.0833333333335,8.132098615254458,2022-06-04 07:06:50,2.555907110132642,0.0,0.0
Main,66,False,True,1,12,Non-designer,False,p_AA,p_AA,True,Sure same,0.9166666666666666,422.2,3304.8333333333335,8.085234980762207,2022-06-04 07:06:50,2.555907110132642,0.0,0.0
Main,66,True,False,1,36,Non-designer,False,q_BD,q_AD,False,Sure same,0.6111111111111112,422.2,3282.972222222222,8.0918576111069,2022-06-04 07:06:50,1.7948894190962676,0.6913978494623656,1.9636169280007734
Main,66,True,True,1,12,Non-designer,False,r_AD,r_AD,True,Sure same,1.0,422.2,3154.8333333333335,8.054773998652841,2022-06-04 07:06:50,3.141592653589793,0.0,0.0
Main,67,False,False,1,12,Non-designer,False,c_DD,c_AA,False,Sure different,0.9166666666666666,188.9,2907.6666666666665,7.966471000294034,2022-06-04 07:00:12,2.555907110132642,0.0,0.0
Main,67,False,True,1,12,Non-designer,False,n_AA,n_AA,True,Sure same,0.75,188.9,3114.4166666666665,8.037115419692794,2022-06-04 07:00:12,2.0943951023931953,0.0,0.0
Main,67,True,False,1,36,Non-designer,False,r_BC,r_AD,False,Probably same,0.6944444444444444,188.9,3284.0,8.080581335336245,2022-06-04 07:00:12,1.9702215666754914,0.7774193548387096,2.1589654120333552
Main,67,True,True,1,12,Non-designer,False,z_AD,z_AD,True,Sure same,0.5,188.9,3650.5,8.18823849665952,2022-06-04 07:00:12,1.5707963267948968,0.0,0.0
Main,68,False,False,1,12,Non-designer,False,r_AA,r_DD,False,Sure different,1.0,227.8,3071.5,8.028131846996851,2022-06-04 06:44:46,3.141592653589793,0.0,0.0
Main,68,False,True,1,12,Non-designer,False,j_AA,j_AA,True,Sure same,0.9166666666666666,227.8,2999.1666666666665,7.993205076403498,2022-06-04 06:44:46,2.555907110132642,0.0,0.0
Main,68,True,False,1,36,Non-designer,False,h_BD,h_AD,False,Sure different,0.75,227.8,3351.6666666666665,8.100874576895249,2022-06-04 06:44:46,2.0943951023931953,0.8010752688172043,2.2169883262115904
Main,68,True,True,1,12,Non-designer,False,e_AD,e_AD,True,Sure same,0.9166666666666666,227.8,2919.5,7.97419484493847,2022-06-04 06:44:46,2.555907110132642,0.0,0.0
Main,69,False,False,1,12,Non-designer,False,j_AA,j_DD,False,Sure different,1.0,188.9,2931.25,7.981532631295459,2022-06-04 06:38:53,3.141592653589793,0.0,0.0
Main,69,False,True,1,12,Non-designer,False,r_AA,r_AA,True,Sure same,0.5833333333333334,188.9,3225.25,8.069896262747122,2022-06-04 06:38:53,1.738244406014586,0.0,0.0
Main,69,True,False,1,36,Non-designer,False,j_BD,j_AD,False,Sure same,0.7222222222222222,188.9,3235.027777777778,8.060669412636932,2022-06-04 06:38:53,2.031350318476219,0.8118279569892474,2.244207235944208
Main,69,True,True,1,12,Non-designer,False,a_AD,a_AD,True,Sure same,0.8333333333333334,188.9,3004.0833333333335,8.004521361060918,2022-06-04 06:38:53,2.300523983021863,0.0,0.0
Main,70,False,False,1,12,Graphic designer,True,p_AA,p_DD,False,Sure different,0.9166666666666666,227.8,3085.4166666666665,8.027863064536986,2022-06-04 06:32:37,2.555907110132642,0.0,0.0
Main,70,False,True,1,12,Graphic designer,True,c_AA,c_AA,True,Sure same,0.9166666666666666,227.8,4661.5,8.353455851631843,2022-06-04 06:32:37,2.555907110132642,0.0,0.0
Main,70,True,False,1,36,Graphic designer,True,r_BD,r_AD,False,Sure different,0.8333333333333334,227.8,3752.527777777778,8.190155697570013,2022-06-04 06:32:37,2.300523983021863,0.8849462365591398,2.449468969756625
Main,70,True,True,1,12,Graphic designer,True,e_AD,e_AD,True,Sure same,0.8333333333333334,227.8,3462.8333333333335,8.115318542038834,2022-06-04 06:32:37,2.300523983021863,0.0,0.0
Main,71,False,False,1,12,Non-designer,False,r_AA,r_DD,False,Sure different,1.0,188.9,2949.6666666666665,7.9790092684332,2022-06-04 06:20:37,3.141592653589793,0.0,0.0
Main,71,False,True,1,12,Non-designer,False,b_AA,b_AA,True,Probably same,0.6666666666666666,188.9,3750.9166666666665,8.213633721649805,2022-06-04 06:20:37,1.9106332362490186,0.0,0.0
Main,71,True,False,1,36,Non-designer,False,e_AD,e_BC,False,Probably same,0.7777777777777778,188.9,3393.3333333333335,8.108145512059544,2022-06-04 06:20:37,2.1598272970111707,0.8440860215053764,2.329762942169925
Main,71,True,True,1,12,Non-designer,False,q_AD,q_AD,True,Probably same,0.5833333333333334,188.9,3493.5833333333335,8.147013953004196,2022-06-04 06:20:37,1.738244406014586,0.0,0.0
Main,72,False,False,1,12,Non-designer,False,n_DD,n_AA,False,Sure different,0.8333333333333334,344.4,3630.6666666666665,8.194004272686275,2022-06-04 06:18:40,2.300523983021863,0.0,0.0
Main,72,False,True,1,12,Non-designer,False,q_AA,q_AA,True,Probably same,0.8333333333333334,344.4,3484.5833333333335,8.147638692404708,2022-06-04 06:18:40,2.300523983021863,0.0,0.0
Main,72,True,False,1,36,Non-designer,False,c_AD,c_BD,False,Probably same,0.5555555555555556,344.4,3904.777777777778,8.253841627742847,2022-06-04 06:18:40,1.6821373411358604,0.6333333333333333,1.8407291226283
Main,72,True,True,1,12,Non-designer,False,p_AD,p_AD,True,Probably same,1.0,344.4,3568.8333333333335,8.172381718379938,2022-06-04 06:18:40,3.141592653589793,0.0,0.0
Main,73,False,False,1,12,Non-designer,False,r_DD,r_AA,False,Sure different,1.0,344.4,2899.1666666666665,7.971493035384387,2022-06-04 06:00:47,3.141592653589793,0.0,0.0
Main,73,False,True,1,12,Non-designer,False,c_AA,c_AA,True,Sure same,0.5,344.4,3456.5833333333335,8.1420209800037,2022-06-04 06:00:47,1.5707963267948968,0.0,0.0
Main,73,True,False,1,36,Non-designer,False,n_BC,n_AD,False,Sure different,0.8055555555555556,344.4,3392.3611111111113,8.115678843075537,2022-06-04 06:00:47,2.2282598831765403,0.7268817204301076,2.0417804072351013
Main,73,True,True,1,12,Non-designer,False,b_AD,b_AD,True,Probably same,0.9166666666666666,344.4,3727.25,8.193897174221924,2022-06-04 06:00:47,2.555907110132642,0.0,0.0
Main,74,False,False,1,12,Non-designer,False,b_AA,b_DD,False,Sure different,1.0,266.7,3470.9166666666665,8.146011095293721,2022-06-04 05:58:54,3.141592653589793,0.0,0.0
Main,74,False,True,1,12,Non-designer,False,b_AA,b_AA,True,Sure same,0.9166666666666666,266.7,3951.9166666666665,8.251882122160481,2022-06-04 05:58:54,2.555907110132642,0.0,0.0
Main,74,True,False,1,36,Non-designer,False,r_AB,r_AD,True,Sure same,0.6666666666666666,266.7,3708.777777777778,8.208105882884784,2022-06-04 05:58:54,1.9106332362490186,0.7279569892473119,2.0441951857647545
Main,74,True,True,1,12,Non-designer,False,r_AD,r_AD,True,Sure same,0.6666666666666666,266.7,3554.75,8.16707112440191,2022-06-04 05:58:54,1.9106332362490186,0.0,0.0
Main,75,False,False,1,12,Non-designer,False,z_DD,z_AA,False,Sure different,0.9166666666666666,344.4,3338.0833333333335,8.108609969221211,2022-06-04 05:56:17,2.555907110132642,0.0,0.0
Main,75,False,True,1,12,Non-designer,False,t_AA,t_AA,True,Sure same,0.9166666666666666,344.4,3618.0833333333335,8.181640653790597,2022-06-04 05:56:17,2.555907110132642,0.0,0.0
Main,75,True,False,1,36,Non-designer,False,t_BC,t_AD,False,Sure same,0.5833333333333334,344.4,3676.3611111111113,8.192809307586698,2022-06-04 05:56:17,1.738244406014586,0.6967741935483871,1.975284608287874
Main,75,True,True,1,12,Non-designer,False,e_AD,e_AD,True,Sure same,0.9166666666666666,344.4,3469.25,8.14555720869217,2022-06-04 05:56:17,2.555907110132642,0.0,0.0
Main,76,False,False,1,12,Letter designer,True,p_DD,p_AA,False,Sure different,1.0,266.7,2804.25,7.938059609720828,2022-06-04 05:55:53,3.141592653589793,0.0,0.0
Main,76,False,True,1,12,Letter designer,True,h_AA,h_AA,True,Probably same,0.5,266.7,3296.75,8.084584573387533,2022-06-04 05:55:53,1.5707963267948968,0.0,0.0
Main,76,True,False,1,36,Letter designer,True,n_BC,n_AD,False,Probably same,0.6944444444444444,266.7,3342.8055555555557,8.089187380653193,2022-06-04 05:55:53,1.9702215666754914,0.7043010752688172,1.9917183299828434
Main,76,True,True,1,12,Letter designer,True,p_AD,p_AD,True,Probably same,0.8333333333333334,266.7,3275.6666666666665,8.080059748473063,2022-06-04 05:55:53,2.300523983021863,0.0,0.0
Main,77,False,False,1,12,Non-designer,False,n_DD,n_AA,False,Sure different,1.0,422.2,3073.25,8.02897123617688,2022-06-04 05:42:47,3.141592653589793,0.0,0.0
Main,77,False,True,1,12,Non-designer,False,e_AA,e_AA,True,Sure different,0.75,422.2,3772.6666666666665,8.232014451613564,2022-06-04 05:42:47,2.0943951023931953,0.0,0.0
Main,77,True,False,1,36,Non-designer,False,p_BD,p_AD,False,Sure different,0.5,422.2,3504.75,8.150663569728303,2022-06-04 05:42:47,1.5707963267948968,0.36881720430107523,1.3053234679282262
Main,77,True,True,1,12,Non-designer,False,z_AD,z_AD,True,Probably same,1.0,422.2,3775.25,8.21746053606853,2022-06-04 05:42:47,3.141592653589793,0.0,0.0
Main,78,False,False,1,12,Non-designer,False,p_DD,p_AA,False,Probably different,0.8333333333333334,266.7,3290.25,8.087457487054332,2022-06-04 05:31:20,2.300523983021863,0.0,0.0
Main,78,False,True,1,12,Non-designer,False,h_AA,h_AA,True,Probably different,0.75,266.7,3774.5833333333335,8.229142927731461,2022-06-04 05:31:20,2.0943951023931953,0.0,0.0
Main,78,True,False,1,36,Non-designer,False,a_AB,a_AD,True,Sure same,0.5277777777777778,266.7,3811.0833333333335,8.23288401030657,2022-06-04 05:31:20,1.626380500075814,0.6924731182795699,1.9659458962093599
Main,78,True,True,1,12,Non-designer,False,c_AD,c_AD,True,Probably same,0.75,266.7,3698.75,8.191374000719183,2022-06-04 05:31:20,2.0943951023931953,0.0,0.0
Main,79,False,False,1,12,Graphic designer,True,z_AA,z_DD,False,Sure different,1.0,227.8,2902.75,7.97228666145067,2022-06-04 05:30:18,3.141592653589793,0.0,0.0
Main,79,False,True,1,12,Graphic designer,True,e_AA,e_AA,True,Sure same,0.9166666666666666,227.8,2955.1666666666665,7.989830714185128,2022-06-04 05:30:18,2.555907110132642,0.0,0.0
Main,79,True,False,1,36,Graphic designer,True,n_AD,n_BD,False,Sure different,0.6666666666666666,227.8,3039.972222222222,8.012172445099258,2022-06-04 05:30:18,1.9106332362490186,0.7580645161290323,2.113121629569745
Main,79,True,True,1,12,Graphic designer,True,h_AD,h_AD,True,Sure same,0.9166666666666666,227.8,2899.0833333333335,7.971414035418866,2022-06-04 05:30:18,2.555907110132642,0.0,0.0
Main,80,False,False,1,12,Non-designer,False,r_DD,r_AA,False,Sure different,0.75,305.6,3415.25,8.114647586550678,2022-06-04 05:22:05,2.0943951023931953,0.0,0.0
Main,80,False,True,1,12,Non-designer,False,p_AA,p_AA,True,Sure same,1.0,305.6,3291.8333333333335,8.07768652879158,2022-06-04 05:22:05,3.141592653589793,0.0,0.0
Main,80,True,False,1,36,Non-designer,False,j_BC,j_AD,False,Sure same,0.5277777777777778,305.6,3185.1666666666665,8.05925029263226,2022-06-04 05:22:05,1.626380500075814,0.5956989247311828,1.7633824550163923
Main,80,True,True,1,12,Non-designer,False,p_AD,p_AD,True,Sure same,1.0,305.6,2978.4166666666665,7.998032817399395,2022-06-04 05:22:05,3.141592653589793,0.0,0.0
Main,81,False,False,1,12,Other designer,True,t_AA,t_DD,False,Sure different,1.0,383.3,3243.6666666666665,8.083527855074832,2022-06-04 05:20:27,3.141592653589793,0.0,0.0
Main,81,False,True,1,12,Other designer,True,h_AA,h_AA,True,Sure same,0.8333333333333334,383.3,4076.8333333333335,8.306170528092986,2022-06-04 05:20:27,2.300523983021863,0.0,0.0
Main,81,True,False,1,36,Other designer,True,b_AD,b_BD,False,Sure different,0.6944444444444444,383.3,4244.138888888889,8.332017463901774,2022-06-04 05:20:27,1.9702215666754914,0.7720430107526881,2.1460957280164457
Main,81,True,True,1,12,Other designer,True,c_AD,c_AD,True,Sure same,0.5833333333333334,383.3,4099.5,8.313230165445866,2022-06-04 05:20:27,1.738244406014586,0.0,0.0
Main,82,False,False,1,12,Other designer,True,n_AA,n_DD,False,Sure different,1.0,227.8,3212.4166666666665,8.044926451207573,2022-06-04 05:06:17,3.141592653589793,0.0,0.0
Main,82,False,True,1,12,Other designer,True,c_AA,c_AA,True,Sure same,0.9166666666666666,227.8,3127.6666666666665,8.042292886247589,2022-06-04 05:06:17,2.555907110132642,0.0,0.0
Main,82,True,False,1,36,Other designer,True,r_BC,r_AD,False,Sure different,0.7777777777777778,227.8,3100.8055555555557,8.029822421135062,2022-06-04 05:06:17,2.1598272970111707,0.7913978494623655,2.192961147899181
Main,82,True,True,1,12,Other designer,True,j_AD,j_AD,True,Sure same,1.0,227.8,3321.9166666666665,8.090871806981367,2022-06-04 05:06:17,3.141592653589793,0.0,0.0
Main,83,False,False,1,12,Non-designer,False,n_DD,n_AA,False,Sure different,1.0,344.4,2592.75,7.856263182623476,2022-06-04 04:39:56,3.141592653589793,0.0,0.0
Main,83,False,True,1,12,Non-designer,False,h_AA,h_AA,True,Sure same,0.9166666666666666,344.4,2526.3333333333335,7.825826432986826,2022-06-04 04:39:56,2.555907110132642,0.0,0.0
Main,83,True,False,1,36,Non-designer,False,r_AD,r_AB,True,Sure same,0.5833333333333334,344.4,3170.722222222222,7.981974872663981,2022-06-04 04:39:56,1.738244406014586,0.6731182795698925,1.9243528782539612
Main,83,True,True,1,12,Non-designer,False,q_AD,q_AD,True,Probably different,0.9166666666666666,344.4,3184.0,7.978650253526392,2022-06-04 04:39:56,2.555907110132642,0.0,0.0
Main,84,False,False,1,12,Non-designer,False,q_AA,q_DD,False,Sure same,0.3333333333333333,500.0,3759.5833333333335,8.224037103451996,2022-06-04 04:19:43,1.2309594173407745,0.0,0.0
Main,84,False,True,1,12,Non-designer,False,b_AA,b_AA,True,Sure same,0.6666666666666666,500.0,3653.1666666666665,8.199473660989309,2022-06-04 04:19:43,1.9106332362490186,0.0,0.0
Main,84,True,False,1,36,Non-designer,False,h_BC,h_AD,False,Sure same,0.3888888888888889,500.0,3794.4166666666665,8.226392459154498,2022-06-04 04:19:43,1.3467032344935257,0.4978494623655914,1.5664952382648591
Main,84,True,True,1,12,Non-designer,False,h_AD,h_AD,True,Sure same,0.8333333333333334,500.0,3788.6666666666665,8.231924212982515,2022-06-04 04:19:43,2.300523983021863,0.0,0.0
Main,85,False,False,1,12,Non-designer,False,q_AA,q_DD,False,Sure different,0.9166666666666666,344.4,2972.8333333333335,7.996074710635011,2022-06-04 04:05:49,2.555907110132642,0.0,0.0
Main,85,False,True,1,12,Non-designer,False,b_AA,b_AA,True,Sure same,0.9166666666666666,344.4,3095.4166666666665,8.033271069871887,2022-06-04 04:05:49,2.555907110132642,0.0,0.0
Main,85,True,False,1,36,Non-designer,False,r_AD,r_BD,False,Sure same,0.6388888888888888,344.4,3422.1666666666665,8.122498381784212,2022-06-04 04:05:49,1.8522764000257417,0.6795698924731184,1.9381423486629976
Main,85,True,True,1,12,Non-designer,False,h_AD,h_AD,True,Sure same,0.9166666666666666,344.4,3451.5,8.123029578219954,2022-06-04 04:05:49,2.555907110132642,0.0,0.0
Main,86,False,False,1,12,Non-designer,False,t_AA,t_DD,False,Sure different,1.0,383.3,3363.6666666666665,8.118486709801195,2022-06-04 04:05:47,3.141592653589793,0.0,0.0
Main,86,False,True,1,12,Non-designer,False,e_AA,e_AA,True,Sure different,0.9166666666666666,383.3,4168.0,8.282926615418068,2022-06-04 04:05:47,2.555907110132642,0.0,0.0
Main,86,True,False,1,36,Non-designer,False,a_AD,a_BD,False,Sure same,0.5277777777777778,383.3,3724.6111111111113,8.20691082108243,2022-06-04 04:05:47,1.626380500075814,0.4258064516129032,1.4218592133502763
Main,86,True,True,1,12,Non-designer,False,e_AD,e_AD,True,Sure same,0.5833333333333334,383.3,4026.5,8.28281741089212,2022-06-04 04:05:47,1.738244406014586,0.0,0.0
Main,87,False,False,1,12,Non-designer,False,z_AA,z_DD,False,Sure different,1.0,266.7,2858.5,7.957383922592537,2022-06-04 03:52:40,3.141592653589793,0.0,0.0
Main,87,False,True,1,12,Non-designer,False,p_AA,p_AA,True,Sure same,0.75,266.7,3212.9166666666665,8.067047264421616,2022-06-04 03:52:40,2.0943951023931953,0.0,0.0
Main,87,True,False,1,36,Non-designer,False,q_AB,q_AD,True,Sure same,0.6944444444444444,266.7,3319.027777777778,8.044634271567203,2022-06-04 03:52:40,1.9702215666754914,0.7569892473118279,2.1106127115805084
Main,87,True,True,1,12,Non-designer,False,b_AD,b_AD,True,Sure same,0.8333333333333334,266.7,3231.8333333333335,8.043059997423933,2022-06-04 03:52:40,2.300523983021863,0.0,0.0
Main,88,False,False,1,12,Non-designer,False,e_DD,e_AA,False,Probably same,0.75,305.6,2917.5,7.976001517301746,2022-06-04 02:29:27,2.0943951023931953,0.0,0.0
Main,88,False,True,1,12,Non-designer,False,b_AA,b_AA,True,Probably same,1.0,305.6,2680.4166666666665,7.8887269545823395,2022-06-04 02:29:27,3.141592653589793,0.0,0.0
Main,88,True,False,1,36,Non-designer,False,b_AD,b_BC,False,Probably different,0.6388888888888888,305.6,2949.8055555555557,7.97081582137722,2022-06-04 02:29:27,1.8522764000257417,0.7806451612903226,2.1667403820858624
Main,88,True,True,1,12,Non-designer,False,c_AD,c_AD,True,Probably different,0.8333333333333334,305.6,3019.8333333333335,7.996528960281473,2022-06-04 02:29:27,2.300523983021863,0.0,0.0
Main,89,False,False,1,12,Non-designer,False,n_DD,n_AA,False,Sure different,1.0,266.7,3309.5833333333335,8.098647760792156,2022-06-04 01:48:59,3.141592653589793,0.0,0.0
Main,89,False,True,1,12,Non-designer,False,q_AA,q_AA,True,Probably same,0.75,266.7,3948.8333333333335,8.26908904711137,2022-06-04 01:48:59,2.0943951023931953,0.0,0.0
Main,89,True,False,1,36,Non-designer,False,b_BD,b_AD,False,Sure different,0.4444444444444444,266.7,4013.972222222222,8.273402509612726,2022-06-04 01:48:59,1.4594553124539327,0.535483870967742,1.6418237747104136
Main,89,True,True,1,12,Non-designer,False,a_AD,a_AD,True,Sure same,0.75,266.7,4057.0,8.295545464577703,2022-06-04 01:48:59,2.0943951023931953,0.0,0.0
Main,90,False,False,1,12,Other designer,True,q_AA,q_DD,False,Sure different,0.9166666666666666,461.1,3293.0,8.085910154815947,2022-06-04 01:40:42,2.555907110132642,0.0,0.0
Main,90,False,True,1,12,Other designer,True,t_AA,t_AA,True,Sure same,0.9166666666666666,461.1,3272.9166666666665,8.089944359848433,2022-06-04 01:40:42,2.555907110132642,0.0,0.0
Main,90,True,False,1,36,Other designer,True,z_AD,z_BD,False,Sure same,0.6388888888888888,461.1,3451.8611111111113,8.13299146890216,2022-06-04 01:40:42,1.8522764000257417,0.5591397849462365,1.6893534371729144
Main,90,True,True,1,12,Other designer,True,a_AD,a_AD,True,Sure same,0.8333333333333334,461.1,3384.0833333333335,8.12178605434776,2022-06-04 01:40:42,2.300523983021863,0.0,0.0
Main,91,False,False,1,12,Non-designer,False,j_DD,j_AA,False,Sure different,0.9166666666666666,266.7,3073.3333333333335,8.025984666959024,2022-06-04 01:16:30,2.555907110132642,0.0,0.0
Main,91,False,True,1,12,Non-designer,False,h_AA,h_AA,True,Probably same,0.8333333333333334,266.7,3158.25,8.04307298247972,2022-06-04 01:16:30,2.300523983021863,0.0,0.0
Main,91,True,False,1,36,Non-designer,False,c_AD,c_AB,True,Probably different,0.25,266.7,3019.6666666666665,8.004954635611142,2022-06-04 01:16:30,1.0471975511965976,0.4182795698924731,1.4066189141807348
Main,91,True,True,1,12,Non-designer,False,h_AD,h_AD,True,Probably different,0.8333333333333334,266.7,3183.5833333333335,8.041617197441784,2022-06-04 01:16:30,2.300523983021863,0.0,0.0
Main,92,False,False,1,12,Non-designer,False,j_DD,j_AA,False,Sure different,0.9166666666666666,266.7,3087.5,8.02658354794108,2022-06-04 01:03:24,2.555907110132642,0.0,0.0
Main,92,False,True,1,12,Non-designer,False,c_AA,c_AA,True,Sure same,0.75,266.7,3594.3333333333335,8.175691191490408,2022-06-04 01:03:24,2.0943951023931953,0.0,0.0
Main,92,True,False,1,36,Non-designer,False,j_AB,j_AD,True,Probably same,0.6666666666666666,266.7,3659.777777777778,8.189472134094773,2022-06-04 01:03:24,1.9106332362490186,0.7623655913978494,2.123195624683072
Main,92,True,True,1,12,Non-designer,False,t_AD,t_AD,True,Probably different,0.8333333333333334,266.7,4185.5,8.275730262071125,2022-06-04 01:03:24,2.300523983021863,0.0,0.0
Main,93,False,False,1,12,Non-designer,False,a_DD,a_AA,False,Sure different,1.0,383.3,3200.8333333333335,8.070038104482167,2022-06-04 00:54:31,3.141592653589793,0.0,0.0
Main,93,False,True,1,12,Non-designer,False,b_AA,b_AA,True,Sure same,1.0,383.3,3619.1666666666665,8.182228344082652,2022-06-04 00:54:31,3.141592653589793,0.0,0.0
Main,93,True,False,1,36,Non-designer,False,z_BD,z_AD,False,Sure different,0.6388888888888888,383.3,3685.472222222222,8.199712466522962,2022-06-04 00:54:31,1.8522764000257417,0.6709677419354838,1.9197720859607874
Main,93,True,True,1,12,Non-designer,False,r_AD,r_AD,True,Sure same,0.8333333333333334,383.3,4175.583333333333,8.312414522098324,2022-06-04 00:54:31,2.300523983021863,0.0,0.0
Main,94,False,False,1,12,Graphic designer,True,b_AA,b_DD,False,Sure different,1.0,188.9,3278.1666666666665,8.084161324775293,2022-06-04 00:54:24,3.141592653589793,0.0,0.0
Main,94,False,True,1,12,Graphic designer,True,n_AA,n_AA,True,Probably same,0.9166666666666666,188.9,3616.3333333333335,8.17998625841385,2022-06-04 00:54:24,2.555907110132642,0.0,0.0
Main,94,True,False,1,36,Graphic designer,True,c_BC,c_AD,False,Probably same,0.5277777777777778,188.9,3918.4444444444443,8.246787991049978,2022-06-04 00:54:24,1.626380500075814,0.643010752688172,1.8608686267810657
Main,94,True,True,1,12,Graphic designer,True,t_AD,t_AD,True,Probably same,0.6666666666666666,188.9,3627.75,8.189140006710161,2022-06-04 00:54:24,1.9106332362490186,0.0,0.0
Main,95,False,False,1,12,Non-designer,False,t_AA,t_DD,False,Probably same,0.9166666666666666,188.9,3960.1666666666665,8.251161662310677,2022-06-04 00:30:23,2.555907110132642,0.0,0.0
Main,95,False,True,1,12,Non-designer,False,h_AA,h_AA,True,Probably same,0.75,188.9,4236.916666666667,8.3291364296176,2022-06-04 00:30:23,2.0943951023931953,0.0,0.0
Main,95,True,False,1,36,Non-designer,False,c_BC,c_AD,False,Probably different,0.6111111111111112,188.9,4291.805555555556,8.342109290143396,2022-06-04 00:30:23,1.7948894190962676,0.7,1.9823131728623846
Main,95,True,True,1,12,Non-designer,False,q_AD,q_AD,True,Probably same,0.75,188.9,3768.1666666666665,8.231237511607342,2022-06-04 00:30:23,2.0943951023931953,0.0,0.0
Main,96,False,False,1,12,Other designer,True,j_AA,j_DD,False,Sure different,1.0,227.8,2870.8333333333335,7.957372842739184,2022-06-04 00:19:24,3.141592653589793,0.0,0.0
Main,96,False,True,1,12,Other designer,True,z_AA,z_AA,True,Sure same,0.9166666666666666,227.8,3473.0833333333335,8.135740337051898,2022-06-04 00:19:24,2.555907110132642,0.0,0.0
Main,96,True,False,1,36,Other designer,True,t_AD,t_BC,False,Sure same,0.6944444444444444,227.8,3319.777777777778,8.091895840683163,2022-06-04 00:19:24,1.9702215666754914,0.7892473118279569,2.187678273370169
Main,96,True,True,1,12,Other designer,True,a_AD,a_AD,True,Probably same,0.9166666666666666,227.8,3058.0833333333335,8.022262746931482,2022-06-04 00:19:24,2.555907110132642,0.0,0.0
Main,97,False,False,1,12,Non-designer,False,p_AA,p_DD,False,Sure different,1.0,344.4,3322.0833333333335,8.0977246417283,2022-06-03 23:37:56,3.141592653589793,0.0,0.0
Main,97,False,True,1,12,Non-designer,False,n_AA,n_AA,True,Probably same,0.8333333333333334,344.4,4187.666666666667,8.316541288469304,2022-06-03 23:37:56,2.300523983021863,0.0,0.0
Main,97,True,False,1,36,Non-designer,False,n_AB,n_AD,True,Probably different,0.75,344.4,3935.1944444444443,8.25032782872557,2022-06-03 23:37:56,2.0943951023931953,0.8193548387096774,2.2636164766623486
Main,97,True,True,1,12,Non-designer,False,b_AD,b_AD,True,Probably same,0.75,344.4,4589.25,8.380497585071437,2022-06-03 23:37:56,2.0943951023931953,0.0,0.0
Main,98,False,False,1,12,Non-designer,False,c_DD,c_AA,False,Sure different,1.0,266.7,3678.0833333333335,8.206977089657611,2022-06-03 23:32:47,3.141592653589793,0.0,0.0
Main,98,False,True,1,12,Non-designer,False,a_AA,a_AA,True,Probably different,0.6666666666666666,266.7,4202.0,8.323112551475303,2022-06-03 23:32:47,1.9106332362490186,0.0,0.0
Main,98,True,False,1,36,Non-designer,False,t_BC,t_AD,False,Sure same,0.5277777777777778,266.7,3908.8055555555557,8.25557903982099,2022-06-03 23:32:47,1.626380500075814,0.7526881720430108,2.1006143756300233
Main,98,True,True,1,12,Non-designer,False,c_AD,c_AD,True,Probably same,0.9166666666666666,266.7,4078.0,8.291730093656481,2022-06-03 23:32:47,2.555907110132642,0.0,0.0
Main,99,False,False,1,12,Non-designer,False,r_DD,r_AA,False,Sure different,1.0,344.4,2918.0,7.971609017761593,2022-06-03 23:19:33,3.141592653589793,0.0,0.0
Main,99,False,True,1,12,Non-designer,False,j_AA,j_AA,True,Probably different,0.8333333333333334,344.4,3578.75,8.168254922928906,2022-06-03 23:19:33,2.300523983021863,0.0,0.0
Main,99,True,False,1,36,Non-designer,False,b_AB,b_AD,True,Probably same,0.6666666666666666,344.4,3221.277777777778,8.052468703698146,2022-06-03 23:19:33,1.9106332362490186,0.7365591397849462,2.0636232363668414
Main,99,True,True,1,12,Non-designer,False,z_AD,z_AD,True,Probably different,0.5833333333333334,344.4,3434.0833333333335,8.131132858486469,2022-06-03 23:19:33,1.738244406014586,0.0,0.0
Main,100,False,False,1,12,Non-designer,False,p_AA,p_DD,False,Sure different,0.75,305.6,3439.6666666666665,8.132581491798467,2022-06-03 23:06:14,2.0943951023931953,0.0,0.0
Main,100,False,True,1,12,Non-designer,False,a_AA,a_AA,True,Sure same,0.8333333333333334,305.6,3552.25,8.150601209184076,2022-06-03 23:06:14,2.300523983021863,0.0,0.0
Main,100,True,False,1,36,Non-designer,False,p_BD,p_AD,False,Sure same,0.6666666666666666,305.6,3400.0,8.124214517573293,2022-06-03 23:06:14,1.9106332362490186,0.7430107526881721,2.0783279566357415
Main,100,True,True,1,12,Non-designer,False,a_AD,a_AD,True,Sure same,0.75,305.6,3283.8333333333335,8.092684647203987,2022-06-03 23:06:14,2.0943951023931953,0.0,0.0
Main,101,False,False,1,12,Non-designer,False,j_AA,j_DD,False,Sure different,0.8333333333333334,227.8,3285.75,8.088955660779519,2022-06-03 22:56:58,2.300523983021863,0.0,0.0
Main,101,False,True,1,12,Non-designer,False,h_AA,h_AA,True,Sure same,0.9166666666666666,227.8,3783.9166666666665,8.22345849969845,2022-06-03 22:56:58,2.555907110132642,0.0,0.0
Main,101,True,False,1,36,Non-designer,False,b_AD,b_BD,False,Sure same,0.6666666666666666,227.8,3435.9166666666665,8.133925044452333,2022-06-03 22:56:58,1.9106332362490186,0.7193548387096774,2.0249586167609617
Main,101,True,True,1,12,Non-designer,False,n_AD,n_AD,True,Probably same,0.75,227.8,3715.9166666666665,8.207099562148215,2022-06-03 22:56:58,2.0943951023931953,0.0,0.0
Main,102,False,False,1,12,Non-designer,False,e_AA,e_DD,False,Probably same,0.9166666666666666,461.1,3528.25,8.145904812366906,2022-06-03 22:52:51,2.555907110132642,0.0,0.0
Main,102,False,True,1,12,Non-designer,False,a_AA,a_AA,True,Sure same,0.8333333333333334,461.1,3194.9166666666665,8.066919077366464,2022-06-03 22:52:51,2.300523983021863,0.0,0.0
Main,102,True,False,1,36,Non-designer,False,q_BC,q_AD,False,Probably different,0.5,461.1,3259.1944444444443,8.082647657932768,2022-06-03 22:52:51,1.5707963267948968,0.5838709677419356,1.7393350283772648
Main,102,True,True,1,12,Non-designer,False,p_AD,p_AD,True,Probably same,0.9166666666666666,461.1,3374.75,8.115144151074645,2022-06-03 22:52:51,2.555907110132642,0.0,0.0
Main,103,False,False,1,12,Non-designer,False,j_AA,j_DD,False,Sure different,0.8333333333333334,344.4,3319.9166666666665,8.100949881816373,2022-06-03 22:45:06,2.300523983021863,0.0,0.0
Main,103,False,True,1,12,Non-designer,False,h_AA,h_AA,True,Probably same,0.8333333333333334,344.4,3771.3333333333335,8.23131868917602,2022-06-03 22:45:06,2.300523983021863,0.0,0.0
Main,103,True,False,1,36,Non-designer,False,t_AD,t_AB,True,Probably same,0.7777777777777778,344.4,3799.25,8.215954581349047,2022-06-03 22:45:06,2.1598272970111707,0.7903225806451613,2.1903172226079444
Main,103,True,True,1,12,Non-designer,False,p_AD,p_AD,True,Probably same,1.0,344.4,3379.0833333333335,8.11903873388197,2022-06-03 22:45:06,3.141592653589793,0.0,0.0
Main,104,False,False,1,12,Non-designer,False,e_AA,e_DD,False,Probably different,1.0,344.4,3359.5833333333335,8.1081256838265,2022-06-03 22:28:43,3.141592653589793,0.0,0.0
Main,104,False,True,1,12,Non-designer,False,b_AA,b_AA,True,Probably same,0.9166666666666666,344.4,4047.8333333333335,8.29474090264504,2022-06-03 22:28:43,2.555907110132642,0.0,0.0
Main,104,True,False,1,36,Non-designer,False,c_BD,c_AD,False,Sure different,0.6666666666666666,344.4,3786.5555555555557,8.224232591394765,2022-06-03 22:28:43,1.9106332362490186,0.6311827956989248,1.8362691856615672
Main,104,True,True,1,12,Non-designer,False,h_AD,h_AD,True,Sure different,0.5833333333333334,344.4,3956.4166666666665,8.271895932164009,2022-06-03 22:28:43,1.738244406014586,0.0,0.0
Main,105,False,False,1,12,Non-designer,False,n_AA,n_DD,False,Sure different,1.0,227.8,2746.1666666666665,7.915107976216496,2022-06-03 22:22:59,3.141592653589793,0.0,0.0
Main,105,False,True,1,12,Non-designer,False,j_AA,j_AA,True,Probably same,0.75,227.8,3112.5,8.036242144697043,2022-06-03 22:22:59,2.0943951023931953,0.0,0.0
Main,105,True,False,1,36,Non-designer,False,e_AD,e_AB,True,Probably same,0.6388888888888888,227.8,3105.4166666666665,8.026487736822315,2022-06-03 22:22:59,1.8522764000257417,0.7247311827956989,2.036959722139024
Main,105,True,True,1,12,Non-designer,False,b_AD,b_AD,True,Probably same,0.8333333333333334,227.8,3087.5,8.032737407617342,2022-06-03 22:22:59,2.300523983021863,0.0,0.0
Main,106,False,False,1,12,Letter designer,True,z_DD,z_AA,False,Sure different,1.0,150.0,3360.0833333333335,8.108594043294538,2022-06-03 22:19:31,3.141592653589793,0.0,0.0
Main,106,False,True,1,12,Letter designer,True,b_AA,b_AA,True,Sure same,1.0,150.0,3495.4166666666665,8.141308726418993,2022-06-03 22:19:31,3.141592653589793,0.0,0.0
Main,106,True,False,1,36,Letter designer,True,z_BC,z_AD,False,Probably same,0.7222222222222222,150.0,3830.527777777778,8.200827315521535,2022-06-03 22:19:31,2.031350318476219,0.8602150537634408,2.3752186198016814
Main,106,True,True,1,12,Letter designer,True,r_AD,r_AD,True,Probably same,1.0,150.0,3994.75,8.265443911117258,2022-06-03 22:19:31,3.141592653589793,0.0,0.0
Main,107,False,False,1,12,Non-designer,False,r_AA,r_DD,False,Probably same,0.9166666666666666,383.3,3688.8333333333335,8.17117124356079,2022-06-03 22:08:42,2.555907110132642,0.0,0.0
Main,107,False,True,1,12,Non-designer,False,j_AA,j_AA,True,Sure same,0.6666666666666666,383.3,3387.0833333333335,8.12575222404372,2022-06-03 22:08:42,1.9106332362490186,0.0,0.0
Main,107,True,False,1,36,Non-designer,False,b_AD,b_BD,False,Sure same,0.5555555555555556,383.3,3595.277777777778,8.184462933590034,2022-06-03 22:08:42,1.6821373411358604,0.5806451612903226,1.732794281366022
Main,107,True,True,1,12,Non-designer,False,c_AD,c_AD,True,Sure same,0.9166666666666666,383.3,3884.0833333333335,8.247648539160368,2022-06-03 22:08:42,2.555907110132642,0.0,0.0
Main,108,False,False,1,12,Non-designer,False,t_DD,t_AA,False,Sure different,1.0,266.7,3345.0,8.10396373967531,2022-06-03 22:02:46,3.141592653589793,0.0,0.0
Main,108,False,True,1,12,Non-designer,False,p_AA,p_AA,True,Probably different,0.5833333333333334,266.7,4004.4166666666665,8.287728958258484,2022-06-03 22:02:46,1.738244406014586,0.0,0.0
Main,108,True,False,1,36,Non-designer,False,e_AD,e_AB,True,Probably same,0.7222222222222222,266.7,3956.5833333333335,8.262884483417514,2022-06-03 22:02:46,2.031350318476219,0.7709677419354839,2.1435347264289564
Main,108,True,True,1,12,Non-designer,False,t_AD,t_AD,True,Probably same,0.75,266.7,4301.916666666667,8.34373566527609,2022-06-03 22:02:46,2.0943951023931953,0.0,0.0
Main,109,False,False,1,12,Non-designer,False,p_DD,p_AA,False,Sure different,1.0,500.0,3653.25,8.196692397024092,2022-06-03 20:48:36,3.141592653589793,0.0,0.0
Main,109,False,True,1,12,Non-designer,False,r_AA,r_AA,True,Sure same,1.0,500.0,4320.916666666667,8.35434921316934,2022-06-03 20:48:36,3.141592653589793,0.0,0.0
Main,109,True,False,1,36,Non-designer,False,r_AB,r_AD,True,Sure same,0.6388888888888888,500.0,4806.055555555556,8.42994166773313,2022-06-03 20:48:36,1.8522764000257417,0.6978494623655913,1.9776250938379092
Main,109,True,True,1,12,Non-designer,False,b_AD,b_AD,True,Sure same,0.5833333333333334,500.0,4419.25,8.382396772597065,2022-06-03 20:48:36,1.738244406014586,0.0,0.0
Main,110,False,False,1,12,Non-designer,False,z_DD,z_AA,False,Sure different,0.9166666666666666,266.7,3382.0833333333335,8.11252514541647,2022-06-03 20:41:20,2.555907110132642,0.0,0.0
Main,110,False,True,1,12,Non-designer,False,z_AA,z_AA,True,Sure same,0.75,266.7,3986.5833333333335,8.271710152192338,2022-06-03 20:41:20,2.0943951023931953,0.0,0.0
Main,110,True,False,1,36,Non-designer,False,r_AD,r_BC,False,Sure different,0.8055555555555556,266.7,3784.1944444444443,8.213842465839113,2022-06-03 20:41:20,2.2282598831765403,0.7258064516129032,2.039368594318971
Main,110,True,True,1,12,Non-designer,False,q_AD,q_AD,True,Sure same,0.5833333333333334,266.7,3440.5,8.141195451091567,2022-06-03 20:41:20,1.738244406014586,0.0,0.0
Main,111,False,False,1,12,Non-designer,False,p_DD,p_AA,False,Probably same,0.5833333333333334,461.1,3608.8333333333335,8.188250473145388,2022-06-03 20:11:18,1.738244406014586,0.0,0.0
Main,111,False,True,1,12,Non-designer,False,j_AA,j_AA,True,Probably same,0.9166666666666666,461.1,3527.5,8.164363263631913,2022-06-03 20:11:18,2.555907110132642,0.0,0.0
Main,111,True,False,1,36,Non-designer,False,q_AB,q_AD,True,Sure same,0.3888888888888889,461.1,3708.5555555555557,8.20500900900064,2022-06-03 20:11:18,1.3467032344935257,0.524731182795699,1.6202788831136026
Main,111,True,True,1,12,Non-designer,False,e_AD,e_AD,True,Sure same,0.8333333333333334,461.1,3518.5,8.161769436892648,2022-06-03 20:11:18,2.300523983021863,0.0,0.0
Main,112,False,False,1,12,Non-designer,False,n_AA,n_DD,False,Probably same,0.8333333333333334,305.6,3106.5,8.027037234280334,2022-06-03 20:03:01,2.300523983021863,0.0,0.0
Main,112,False,True,1,12,Non-designer,False,p_AA,p_AA,True,Probably same,0.8333333333333334,305.6,3285.0,8.091455310479793,2022-06-03 20:03:01,2.300523983021863,0.0,0.0
Main,112,True,False,1,36,Non-designer,False,a_AD,a_BD,False,Probably same,0.5833333333333334,305.6,3748.9444444444443,8.20598780669135,2022-06-03 20:03:01,1.738244406014586,0.6881720430107527,1.9566434194144204
Main,112,True,True,1,12,Non-designer,False,e_AD,e_AD,True,Probably same,0.9166666666666666,305.6,3687.5833333333335,8.194683775014097,2022-06-03 20:03:01,2.555907110132642,0.0,0.0
Main,113,False,False,1,12,Non-designer,False,t_AA,t_DD,False,Sure different,1.0,422.2,3725.1666666666665,8.218839745753515,2022-06-03 20:02:23,3.141592653589793,0.0,0.0
Main,113,False,True,1,12,Non-designer,False,q_AA,q_AA,True,Probably same,0.75,422.2,4034.25,8.287020116317096,2022-06-03 20:02:23,2.0943951023931953,0.0,0.0
Main,113,True,False,1,36,Non-designer,False,a_AD,a_AB,True,Sure same,0.6944444444444444,422.2,4184.0,8.321185364753475,2022-06-03 20:02:23,1.9702215666754914,0.7612903225806451,2.1206713102325425
Main,113,True,True,1,12,Non-designer,False,p_AD,p_AD,True,Probably same,0.8333333333333334,422.2,3851.75,8.248654709450893,2022-06-03 20:02:23,2.300523983021863,0.0,0.0
Main,114,False,False,1,12,Non-designer,False,b_AA,b_DD,False,Sure different,0.9166666666666666,188.9,3453.1666666666665,8.136698276340399,2022-06-03 19:59:53,2.555907110132642,0.0,0.0
Main,114,False,True,1,12,Non-designer,False,j_AA,j_AA,True,Probably different,0.8333333333333334,188.9,3811.8333333333335,8.194829840358674,2022-06-03 19:59:53,2.300523983021863,0.0,0.0
Main,114,True,False,1,36,Non-designer,False,t_AB,t_AD,True,Sure different,0.5833333333333334,188.9,3780.9444444444443,8.2175083705799,2022-06-03 19:59:53,1.738244406014586,0.6870967741935484,1.9543233188884463
Main,114,True,True,1,12,Non-designer,False,r_AD,r_AD,True,Sure same,0.8333333333333334,188.9,3654.25,8.182272297943044,2022-06-03 19:59:53,2.300523983021863,0.0,0.0
Main,115,False,False,1,12,Non-designer,False,z_DD,z_AA,False,Sure different,0.8333333333333334,422.2,3240.8333333333335,8.075292870020442,2022-06-03 19:56:41,2.300523983021863,0.0,0.0
Main,115,False,True,1,12,Non-designer,False,a_AA,a_AA,True,Probably same,0.5,422.2,3813.0,8.230730613565145,2022-06-03 19:56:41,1.5707963267948968,0.0,0.0
Main,115,True,False,1,36,Non-designer,False,j_BD,j_AD,False,Sure same,0.75,422.2,3786.527777777778,8.225067555835658,2022-06-03 19:56:41,2.0943951023931953,0.6387096774193549,1.8519033137337688
Main,115,True,True,1,12,Non-designer,False,q_AD,q_AD,True,Probably same,0.9166666666666666,422.2,3594.0833333333335,8.176558952751181,2022-06-03 19:56:41,2.555907110132642,0.0,0.0
Main,116,False,False,1,12,Non-designer,False,b_DD,b_AA,False,Sure different,0.9166666666666666,383.3,3855.0,8.208751146913158,2022-06-03 19:52:27,2.555907110132642,0.0,0.0
Main,116,False,True,1,12,Non-designer,False,q_AA,q_AA,True,Sure same,0.9166666666666666,383.3,3600.1666666666665,8.144745805461952,2022-06-03 19:52:27,2.555907110132642,0.0,0.0
Main,116,True,False,1,36,Non-designer,False,b_AB,b_AD,True,Probably different,0.4166666666666667,383.3,4183.222222222223,8.296950887689967,2022-06-03 19:52:27,1.4033482475752073,0.5053763440860215,1.581549222182565
Main,116,True,True,1,12,Non-designer,False,j_AD,j_AD,True,Sure same,0.8333333333333334,383.3,3883.4166666666665,8.237248801488137,2022-06-03 19:52:27,2.300523983021863,0.0,0.0
Main,117,False,False,1,12,Non-designer,False,b_DD,b_AA,False,Sure different,1.0,344.4,3000.1666666666665,8.004850376117071,2022-06-03 19:50:35,3.141592653589793,0.0,0.0
Main,117,False,True,1,12,Non-designer,False,q_AA,q_AA,True,Probably same,0.75,344.4,3506.0833333333335,8.154005195913703,2022-06-03 19:50:35,2.0943951023931953,0.0,0.0
Main,117,True,False,1,36,Non-designer,False,a_AD,a_BC,False,Sure same,0.6111111111111112,344.4,3532.4166666666665,8.153510969446849,2022-06-03 19:50:35,1.7948894190962676,0.603225806451613,1.778743376284815
Main,117,True,True,1,12,Non-designer,False,h_AD,h_AD,True,Probably different,0.6666666666666666,344.4,3217.5833333333335,8.070080871662263,2022-06-03 19:50:35,1.9106332362490186,0.0,0.0
Main,118,False,False,1,12,Non-designer,False,t_DD,t_AA,False,Sure different,0.9166666666666666,461.1,3802.9166666666665,8.220170630544066,2022-06-03 19:50:15,2.555907110132642,0.0,0.0
Main,118,False,True,1,12,Non-designer,False,h_AA,h_AA,True,Probably same,0.8333333333333334,461.1,4573.666666666667,8.416960281656467,2022-06-03 19:50:15,2.300523983021863,0.0,0.0
Main,118,True,False,1,36,Non-designer,False,a_AD,a_BD,False,Probably same,0.75,461.1,4179.694444444444,8.308590764263302,2022-06-03 19:50:15,2.0943951023931953,0.6483870967741936,1.872109206548557
Main,118,True,True,1,12,Non-designer,False,r_AD,r_AD,True,Sure same,0.4166666666666667,461.1,4198.666666666667,8.323655561659434,2022-06-03 19:50:15,1.4033482475752073,0.0,0.0
Main,119,False,False,1,12,Non-designer,False,e_DD,e_AA,False,Sure same,0.8333333333333334,422.2,4128.75,8.307237199563223,2022-06-03 19:49:25,2.300523983021863,0.0,0.0
Main,119,False,True,1,12,Non-designer,False,p_AA,p_AA,True,Sure same,0.9166666666666666,422.2,3910.0833333333335,8.26766569350866,2022-06-03 19:49:25,2.555907110132642,0.0,0.0
Main,119,True,False,1,36,Non-designer,False,q_AD,q_AB,True,Probably same,0.5833333333333334,422.2,4141.5,8.318972811862487,2022-06-03 19:49:25,1.738244406014586,0.5451612903225806,1.661242171642815
Main,119,True,True,1,12,Non-designer,False,b_AD,b_AD,True,Probably same,0.8333333333333334,422.2,4274.75,8.349965936615769,2022-06-03 19:49:25,2.300523983021863,0.0,0.0
Main,120,False,False,1,12,Graphic designer,True,t_AA,t_DD,False,Probably different,1.0,227.8,5904.25,8.312427976066001,2022-06-03 19:46:25,3.141592653589793,0.0,0.0
Main,120,False,True,1,12,Graphic designer,True,b_AA,b_AA,True,Probably same,0.8333333333333334,227.8,6595.666666666667,8.630117016768224,2022-06-03 19:46:25,2.300523983021863,0.0,0.0
Main,120,True,False,1,36,Graphic designer,True,n_AD,n_BD,False,Probably different,0.6666666666666666,227.8,6270.777777777777,8.482795571050529,2022-06-03 19:46:25,1.9106332362490186,0.7741935483870968,2.1512305501983167
Main,120,True,True,1,12,Graphic designer,True,h_AD,h_AD,True,Probably same,0.8333333333333334,227.8,5940.166666666667,8.643023226885372,2022-06-03 19:46:25,2.300523983021863,0.0,0.0
Main,121,False,False,1,12,Non-designer,False,e_AA,e_DD,False,Probably different,0.9166666666666666,383.3,4157.916666666667,8.309993219825094,2022-06-03 19:44:32,2.555907110132642,0.0,0.0
Main,121,False,True,1,12,Non-designer,False,r_AA,r_AA,True,Sure same,1.0,383.3,3413.5,8.127773973675072,2022-06-03 19:44:32,3.141592653589793,0.0,0.0
Main,121,True,False,1,36,Non-designer,False,n_AD,n_AB,True,Probably same,0.5277777777777778,383.3,3675.25,8.198116083322997,2022-06-03 19:44:32,1.626380500075814,0.6268817204301075,1.827365409111136
Main,121,True,True,1,12,Non-designer,False,b_AD,b_AD,True,Sure same,1.0,383.3,3529.0,8.16002463364068,2022-06-03 19:44:32,3.141592653589793,0.0,0.0
Main,122,False,False,1,12,Non-designer,False,a_AA,a_DD,False,Sure different,0.6666666666666666,383.3,3941.1666666666665,8.263205251872028,2022-06-03 19:38:34,1.9106332362490186,0.0,0.0
Main,122,False,True,1,12,Non-designer,False,t_AA,t_AA,True,Sure different,0.4166666666666667,383.3,3861.3333333333335,8.228413386016461,2022-06-03 19:38:34,1.4033482475752073,0.0,0.0
Main,122,True,False,1,36,Non-designer,False,c_AD,c_BD,False,Sure different,0.5555555555555556,383.3,4011.8055555555557,8.249939941556232,2022-06-03 19:38:34,1.6821373411358604,0.5924731182795698,1.756813481629459
Main,122,True,True,1,12,Non-designer,False,h_AD,h_AD,True,Sure different,0.3333333333333333,383.3,5104.25,8.494676036063167,2022-06-03 19:38:34,1.2309594173407745,0.0,0.0
Main,123,False,False,1,12,Non-designer,False,j_DD,j_AA,False,Sure different,0.9166666666666666,266.7,3317.25,8.092831850011693,2022-06-03 19:34:44,2.555907110132642,0.0,0.0
Main,123,False,True,1,12,Non-designer,False,j_AA,j_AA,True,Sure same,0.9166666666666666,266.7,3423.3333333333335,8.133391385777557,2022-06-03 19:34:44,2.555907110132642,0.0,0.0
Main,123,True,False,1,36,Non-designer,False,p_AD,p_BC,False,Probably same,0.6388888888888888,266.7,3422.3888888888887,8.127390154809893,2022-06-03 19:34:44,1.8522764000257417,0.7129032258064516,2.0106493153483274
Main,123,True,True,1,12,Non-designer,False,h_AD,h_AD,True,Probably same,0.8333333333333334,266.7,3416.0833333333335,8.128072625589613,2022-06-03 19:34:44,2.300523983021863,0.0,0.0
Main,124,False,False,1,12,Non-designer,False,q_DD,q_AA,False,Sure different,0.75,305.6,3108.5,8.02375720082791,2022-06-03 19:27:35,2.0943951023931953,0.0,0.0
Main,124,False,True,1,12,Non-designer,False,h_AA,h_AA,True,Sure same,1.0,305.6,2843.1666666666665,7.952383886741132,2022-06-03 19:27:35,3.141592653589793,0.0,0.0
Main,124,True,False,1,36,Non-designer,False,z_AD,z_AB,True,Sure different,0.5555555555555556,305.6,2994.6944444444443,7.99749979215785,2022-06-03 19:27:35,1.6821373411358604,0.6580645161290323,1.892442808476648
Main,124,True,True,1,12,Non-designer,False,r_AD,r_AD,True,Sure same,1.0,305.6,3114.6666666666665,8.023349179920332,2022-06-03 19:27:35,3.141592653589793,0.0,0.0
Main,125,False,False,1,12,Typographer,True,p_AA,p_DD,False,Probably different,1.0,422.2,3594.3333333333335,8.150523264570937,2022-06-03 19:24:54,3.141592653589793,0.0,0.0
Main,125,False,True,1,12,Typographer,True,c_AA,c_AA,True,Sure same,1.0,422.2,3332.1666666666665,8.110366915766496,2022-06-03 19:24:54,3.141592653589793,0.0,0.0
Main,125,True,False,1,36,Typographer,True,r_AD,r_BD,False,Probably different,0.75,422.2,3791.6666666666665,8.19043599411207,2022-06-03 19:24:54,2.0943951023931953,0.7193548387096773,2.0249586167609612
Main,125,True,True,1,12,Typographer,True,t_AD,t_AD,True,Probably same,0.9166666666666666,422.2,3432.3333333333335,8.135995249175386,2022-06-03 19:24:54,2.555907110132642,0.0,0.0
Main,126,False,False,1,12,Non-designer,False,h_AA,h_DD,False,Sure different,0.75,227.8,3213.75,8.061031138471604,2022-06-03 19:19:51,2.0943951023931953,0.0,0.0
Main,126,False,True,1,12,Non-designer,False,n_AA,n_AA,True,Sure same,1.0,227.8,3013.0833333333335,8.008649582051497,2022-06-03 19:19:51,3.141592653589793,0.0,0.0
Main,126,True,False,1,36,Non-designer,False,z_AB,z_AD,True,Sure same,0.5833333333333334,227.8,3381.25,8.09903055108394,2022-06-03 19:19:51,1.738244406014586,0.7559139784946236,2.108107559584422
Main,126,True,True,1,12,Non-designer,False,a_AD,a_AD,True,Sure same,1.0,227.8,3002.3333333333335,8.004325406821652,2022-06-03 19:19:51,3.141592653589793,0.0,0.0
Main,127,False,False,1,12,Non-designer,False,a_DD,a_AA,False,Sure different,1.0,266.7,3161.0833333333335,8.05713346984838,2022-06-03 19:16:08,3.141592653589793,0.0,0.0
Main,127,False,True,1,12,Non-designer,False,t_AA,t_AA,True,Sure same,0.5,266.7,3685.5833333333335,8.202903209448179,2022-06-03 19:16:08,1.5707963267948968,0.0,0.0
Main,127,True,False,1,36,Non-designer,False,j_BC,j_AD,False,Probably different,0.6944444444444444,266.7,3696.25,8.20195595230653,2022-06-03 19:16:08,1.9702215666754914,0.7946236559139784,2.2009232514731183
Main,127,True,True,1,12,Non-designer,False,c_AD,c_AD,True,Sure same,0.8333333333333334,266.7,3582.75,8.169520420197832,2022-06-03 19:16:08,2.300523983021863,0.0,0.0
Main,128,False,False,1,12,Non-designer,False,q_AA,q_DD,False,Sure different,0.9166666666666666,266.7,3282.1666666666665,8.080270448340888,2022-06-03 19:15:21,2.555907110132642,0.0,0.0
Main,128,False,True,1,12,Non-designer,False,t_AA,t_AA,True,Probably same,0.5833333333333334,266.7,3772.9166666666665,8.180325823852648,2022-06-03 19:15:21,1.738244406014586,0.0,0.0
Main,128,True,False,1,36,Non-designer,False,z_BD,z_AD,False,Sure different,0.6111111111111112,266.7,3559.722222222222,8.166432580590518,2022-06-03 19:15:21,1.7948894190962676,0.6397849462365591,1.8541424365836605
Main,128,True,True,1,12,Non-designer,False,h_AD,h_AD,True,Probably same,0.8333333333333334,266.7,3549.75,8.168356589586331,2022-06-03 19:15:21,2.300523983021863,0.0,0.0
Main,129,False,False,1,12,Letter designer,True,p_DD,p_AA,False,Sure different,1.0,150.0,2905.9166666666665,7.9603419744752175,2022-06-03 18:47:21,3.141592653589793,0.0,0.0
Main,129,False,True,1,12,Letter designer,True,q_AA,q_AA,True,Sure same,0.9166666666666666,150.0,3017.0833333333335,7.9833585057341425,2022-06-03 18:47:21,2.555907110132642,0.0,0.0
Main,129,True,False,1,36,Letter designer,True,r_AD,r_BC,False,Sure same,0.6388888888888888,150.0,3152.3888888888887,8.028621819702302,2022-06-03 18:47:21,1.8522764000257417,0.7849462365591398,2.177171320088609
Main,129,True,True,1,12,Letter designer,True,b_AD,b_AD,True,Probably same,1.0,150.0,2711.3333333333335,7.889066701715753,2022-06-03 18:47:21,3.141592653589793,0.0,0.0
Main,130,False,False,1,12,Non-designer,False,j_AA,j_DD,False,Sure different,0.9166666666666666,150.0,3079.75,8.027451271035288,2022-06-03 18:16:28,2.555907110132642,0.0,0.0
Main,130,False,True,1,12,Non-designer,False,c_AA,c_AA,True,Sure same,0.6666666666666666,150.0,3208.0,8.062595518352703,2022-06-03 18:16:28,1.9106332362490186,0.0,0.0
Main,130,True,False,1,36,Non-designer,False,r_BD,r_AD,False,Sure same,0.7222222222222222,150.0,3227.8333333333335,8.066272723423921,2022-06-03 18:16:28,2.031350318476219,0.7698924731182795,2.1409779472088
Main,130,True,True,1,12,Non-designer,False,t_AD,t_AD,True,Sure same,0.9166666666666666,150.0,3272.3333333333335,8.078498170564815,2022-06-03 18:16:28,2.555907110132642,0.0,0.0
Main,131,False,False,1,12,Other designer,True,t_AA,t_DD,False,Sure different,1.0,461.1,3893.1666666666665,8.259662588114558,2022-06-03 18:10:23,3.141592653589793,0.0,0.0
Main,131,False,True,1,12,Other designer,True,j_AA,j_AA,True,Probably same,1.0,461.1,4206.583333333333,8.337638531193237,2022-06-03 18:10:23,3.141592653589793,0.0,0.0
Main,131,True,False,1,36,Other designer,True,h_AD,h_BC,False,Probably different,0.7777777777777778,461.1,4275.25,8.345447210922257,2022-06-03 18:10:23,2.1598272970111707,0.743010752688172,2.078327956635741
Main,131,True,True,1,12,Other designer,True,a_AD,a_AD,True,Probably different,0.75,461.1,4212.0,8.335273828769767,2022-06-03 18:10:23,2.0943951023931953,0.0,0.0
Main,132,False,False,1,12,Non-designer,False,p_AA,p_DD,False,Sure different,0.8333333333333334,227.8,3504.5,8.157473583396678,2022-06-03 17:57:57,2.300523983021863,0.0,0.0
Main,132,False,True,1,12,Non-designer,False,p_AA,p_AA,True,Probably same,0.6666666666666666,227.8,3768.75,8.21308716457438,2022-06-03 17:57:57,1.9106332362490186,0.0,0.0
Main,132,True,False,1,36,Non-designer,False,c_BD,c_AD,False,Sure same,0.5,227.8,3513.472222222222,8.151644053995048,2022-06-03 17:57:57,1.5707963267948968,0.6473118279569892,1.8698579969060902
Main,132,True,True,1,12,Non-designer,False,b_AD,b_AD,True,Probably same,0.9166666666666666,227.8,3284.4166666666665,8.095120862552777,2022-06-03 17:57:57,2.555907110132642,0.0,0.0
Main,133,False,False,1,12,Other designer,True,p_AA,p_DD,False,Sure different,1.0,383.3,3136.8333333333335,8.046372741244062,2022-06-03 17:23:51,3.141592653589793,0.0,0.0
Main,133,False,True,1,12,Other designer,True,b_AA,b_AA,True,Sure same,0.8333333333333334,383.3,2932.0,7.97743780814216,2022-06-03 17:23:51,2.300523983021863,0.0,0.0
Main,133,True,False,1,36,Other designer,True,n_AB,n_AD,True,Probably different,0.3333333333333333,383.3,5226.527777777777,8.176962673416444,2022-06-03 17:23:51,1.2309594173407745,0.3,1.1592794807274085
Main,133,True,True,1,12,Other designer,True,p_AD,p_AD,True,Probably same,0.8333333333333334,383.3,3418.4166666666665,8.119413901596973,2022-06-03 17:23:51,2.300523983021863,0.0,0.0
Main,134,False,False,1,12,Graphic designer,True,q_AA,q_DD,False,Sure different,1.0,188.9,2606.5833333333335,7.861791394877778,2022-06-03 16:59:49,3.141592653589793,0.0,0.0
Main,134,False,True,1,12,Graphic designer,True,c_AA,c_AA,True,Sure same,0.8333333333333334,188.9,3387.0,8.09487222901751,2022-06-03 16:59:49,2.300523983021863,0.0,0.0
Main,134,True,False,1,36,Graphic designer,True,t_BD,t_AD,False,Sure same,0.7222222222222222,188.9,2791.0,7.924236836119331,2022-06-03 16:59:49,2.031350318476219,0.856989247311828,2.3659604019019667
Main,134,True,True,1,12,Graphic designer,True,e_AD,e_AD,True,Sure same,0.4166666666666667,188.9,2802.5833333333335,7.933370979719631,2022-06-03 16:59:49,1.4033482475752073,0.0,0.0
Main,135,False,False,1,12,Graphic designer,True,n_DD,n_AA,False,Probably same,0.9166666666666666,305.6,3477.5833333333335,8.134739109971456,2022-06-03 16:58:50,2.555907110132642,0.0,0.0
Main,135,False,True,1,12,Graphic designer,True,c_AA,c_AA,True,Sure same,0.9166666666666666,305.6,3404.8333333333335,8.124243363145538,2022-06-03 16:58:50,2.555907110132642,0.0,0.0
Main,135,True,False,1,36,Graphic designer,True,a_BC,a_AD,False,Probably same,0.5,305.6,3549.3055555555557,8.150409098350778,2022-06-03 16:58:50,1.5707963267948968,0.6741935483870968,1.9266461749690116
Main,135,True,True,1,12,Graphic designer,True,t_AD,t_AD,True,Probably same,1.0,305.6,3327.25,8.103066202789725,2022-06-03 16:58:50,3.141592653589793,0.0,0.0
Main,136,False,False,1,12,Letter designer,True,j_AA,j_DD,False,Sure different,1.0,266.7,3460.6666666666665,8.146891627276009,2022-06-03 16:44:28,3.141592653589793,0.0,0.0
Main,136,False,True,1,12,Letter designer,True,n_AA,n_AA,True,Sure different,0.6666666666666666,266.7,4062.4166666666665,8.294545832377908,2022-06-03 16:44:28,1.9106332362490186,0.0,0.0
Main,136,True,False,1,36,Letter designer,True,b_BD,b_AD,False,Sure different,0.6944444444444444,266.7,4435.083333333333,8.375921785740337,2022-06-03 16:44:28,1.9702215666754914,0.8053763440860215,2.2278071478285013
Main,136,True,True,1,12,Letter designer,True,e_AD,e_AD,True,Sure same,0.8333333333333334,266.7,4393.916666666667,8.37003947500869,2022-06-03 16:44:28,2.300523983021863,0.0,0.0
Main,137,False,False,1,12,Non-designer,False,z_AA,z_DD,False,Probably same,0.75,500.0,3361.3333333333335,8.115007521298528,2022-06-03 16:43:46,2.0943951023931953,0.0,0.0
Main,137,False,True,1,12,Non-designer,False,q_AA,q_AA,True,Probably same,0.25,500.0,3788.5,8.222255882357988,2022-06-03 16:43:46,1.0471975511965976,0.0,0.0
Main,137,True,False,1,36,Non-designer,False,h_BD,h_AD,False,Probably same,0.5,500.0,4361.111111111111,8.29969347611976,2022-06-03 16:43:46,1.5707963267948968,0.41827956989247317,1.4066189141807348
Main,137,True,True,1,12,Non-designer,False,n_AD,n_AD,True,Probably same,0.3333333333333333,500.0,4175.666666666667,8.246211414647252,2022-06-03 16:43:46,1.2309594173407745,0.0,0.0
Main,138,False,False,1,12,Other designer,True,j_DD,j_AA,False,Sure different,0.8333333333333334,227.8,3247.0833333333335,8.079556480714025,2022-06-03 16:22:06,2.300523983021863,0.0,0.0
Main,138,False,True,1,12,Other designer,True,q_AA,q_AA,True,Probably same,0.9166666666666666,227.8,3672.4166666666665,8.20026977835632,2022-06-03 16:22:06,2.555907110132642,0.0,0.0
Main,138,True,False,1,36,Other designer,True,z_BC,z_AD,False,Sure different,0.6944444444444444,227.8,3698.1666666666665,8.205684490147256,2022-06-03 16:22:06,1.9702215666754914,0.7946236559139784,2.2009232514731183
