,StudyID,ParticipantID,TestID,TrialID,Training,isDesigner,First,Second,Same,Response,Correct,ET,RT,RTnorm,Date
0,Main,0,0,1,Graphic designer,True,d_BC,d_AD,False,Sure different,1,800.0,10766.0,9.284148299120902,2022-06-04 18:33:12
1,Main,0,0,2,Graphic designer,True,u_AA,u_DD,False,Sure different,1,800.0,4516.0,8.415381925269553,2022-06-04 18:33:12
2,Main,0,0,3,Graphic designer,True,d_AA,d_DD,False,Sure same,0,800.0,5338.0,8.58260632996447,2022-06-04 18:33:12
3,Main,0,0,4,Graphic designer,True,d_AA,d_AA,True,Sure same,1,725.0,4044.0,8.304989580140361,2022-06-04 18:33:12
4,Main,0,0,5,Graphic designer,True,i_DD,i_AA,False,Sure different,1,650.0,4223.0,8.348301054933943,2022-06-04 18:33:12
5,Main,0,0,6,Graphic designer,True,d_AD,d_BC,False,Sure same,0,575.0,4018.0,8.29853954537488,2022-06-04 18:33:12
6,Main,0,0,7,Graphic designer,True,i_AD,i_BD,False,Sure same,0,500.0,3980.0,8.289037098278483,2022-06-04 18:33:12
7,Main,0,0,8,Graphic designer,True,d_BD,d_AD,False,Sure same,0,425.0,4052.0,8.306965865368573,2022-06-04 18:33:12
8,Main,0,0,9,Graphic designer,True,u_AB,u_AD,True,Probably different,0,350.0,6081.0,8.71292443512011,2022-06-04 18:33:12
9,Main,0,0,10,Graphic designer,True,d_AB,d_AD,True,Sure different,0,275.0,3767.0,8.23403420769204,2022-06-04 18:33:12
10,Main,0,0,11,Graphic designer,True,u_AD,u_BC,False,Sure same,0,200.0,3933.0,8.27715777243181,2022-06-04 18:33:12
11,Main,0,0,12,Graphic designer,True,u_AA,u_AA,True,Sure same,1,200.0,4700.0,8.45531778769815,2022-06-04 18:33:12
12,Main,0,0,13,Graphic designer,True,i_BC,i_AD,False,Sure different,1,275.0,4198.0,8.342363500380579,2022-06-04 18:33:12
13,Main,0,0,14,Graphic designer,True,i_AD,i_AB,True,Sure same,1,350.0,4371.0,8.382747094863314,2022-06-04 18:33:12
14,Main,0,0,15,Graphic designer,True,u_AD,u_AD,True,Sure same,1,425.0,5867.0,8.67709870892586,2022-06-04 18:33:12
15,Main,0,0,16,Graphic designer,True,u_DD,u_AA,False,Sure different,1,500.0,4015.0,8.297792626380861,2022-06-04 18:33:12
16,Main,0,0,17,Graphic designer,True,d_AD,d_AD,True,Sure same,1,575.0,3919.0,8.273591798199632,2022-06-04 18:33:12
17,Main,0,0,18,Graphic designer,True,i_AA,i_AA,True,Sure same,1,650.0,4899.0,8.496786381638575,2022-06-04 18:33:12
18,Main,0,1,1,Graphic designer,True,j_AD,j_BC,False,Sure same,0,422.2,6567.0,8.789812386190972,2022-06-04 18:33:12
19,Main,0,1,2,Graphic designer,True,r_AD,r_BC,False,Sure same,0,422.2,3629.0,8.19671240721307,2022-06-04 18:33:12
20,Main,0,1,3,Graphic designer,True,c_AD,c_AD,True,Sure same,1,422.2,6922.0,8.84246002419529,2022-06-04 18:33:12
21,Main,0,1,4,Graphic designer,True,e_AD,e_AD,True,Sure same,1,422.2,3603.0,8.189522110748094,2022-06-04 18:33:12
22,Main,0,1,5,Graphic designer,True,z_AB,z_AD,True,Sure same,1,422.2,5296.0,8.574707097616844,2022-06-04 18:33:12
23,Main,0,1,6,Graphic designer,True,a_DD,a_AA,False,Sure different,1,422.2,3780.0,8.237479288613633,2022-06-04 18:33:12
24,Main,0,1,7,Graphic designer,True,c_AD,c_BD,False,Sure same,0,422.2,4234.0,8.350902451694811,2022-06-04 18:33:12
25,Main,0,1,8,Graphic designer,True,b_BD,b_AD,False,Sure same,0,422.2,3475.0,8.153349757998892,2022-06-04 18:33:12
26,Main,0,1,9,Graphic designer,True,j_AD,j_AB,True,Sure same,1,422.2,4997.0,8.516593011344206,2022-06-04 18:33:12
27,Main,0,1,10,Graphic designer,True,q_AA,q_AA,True,Sure same,1,422.2,3716.0,8.22040309993373,2022-06-04 18:33:12
28,Main,0,1,11,Graphic designer,True,p_AD,p_AD,True,Sure different,0,422.2,3549.0,8.174421152646497,2022-06-04 18:33:12
29,Main,0,1,12,Graphic designer,True,p_DD,p_AA,False,Sure same,0,422.2,4554.0,8.423761246623686,2022-06-04 18:33:12
30,Main,0,1,13,Graphic designer,True,j_AD,j_AD,True,Sure same,1,422.2,3783.0,8.23827262463303,2022-06-04 18:33:12
31,Main,0,1,14,Graphic designer,True,e_AA,e_DD,False,Sure different,1,422.2,3751.0,8.229777750081887,2022-06-04 18:33:12
32,Main,0,1,15,Graphic designer,True,r_AB,r_AD,True,Sure different,0,422.2,4854.0,8.487558386286548,2022-06-04 18:33:12
33,Main,0,1,16,Graphic designer,True,z_AA,z_AA,True,Sure same,1,422.2,3779.0,8.237214703349489,2022-06-04 18:33:12
34,Main,0,1,17,Graphic designer,True,j_AD,j_BD,False,Sure different,1,422.2,3952.0,8.281977058867758,2022-06-04 18:33:12
35,Main,0,1,18,Graphic designer,True,r_AA,r_AA,True,Sure different,0,422.2,4711.0,8.45765547870004,2022-06-04 18:33:12
36,Main,0,1,19,Graphic designer,True,r_AD,r_AD,True,Sure same,1,422.2,3772.0,8.235360643753348,2022-06-04 18:33:12
37,Main,0,1,20,Graphic designer,True,p_BD,p_AD,False,Sure different,1,422.2,4585.0,8.430545384690566,2022-06-04 18:33:12
38,Main,0,1,21,Graphic designer,True,b_DD,b_AA,False,Sure different,1,422.2,3397.0,8.130647968160584,2022-06-04 18:33:12
39,Main,0,1,22,Graphic designer,True,t_AA,t_AA,True,Sure same,1,422.2,4719.0,8.459352191726387,2022-06-04 18:33:12
40,Main,0,1,23,Graphic designer,True,a_AD,a_BD,False,Sure different,1,422.2,4129.0,8.32579052588609,2022-06-04 18:33:12
41,Main,0,1,24,Graphic designer,True,r_AA,r_DD,False,Sure different,1,422.2,4342.0,8.376090350438238,2022-06-04 18:33:12
42,Main,0,1,25,Graphic designer,True,t_DD,t_AA,False,Sure different,1,422.2,3361.0,8.119993827725105,2022-06-04 18:33:12
43,Main,0,1,26,Graphic designer,True,a_AA,a_AA,True,Sure same,1,422.2,3691.0,8.213652703029998,2022-06-04 18:33:12
44,Main,0,1,27,Graphic designer,True,q_AD,q_BC,False,Sure different,1,422.2,4817.0,8.479906606630221,2022-06-04 18:33:12
45,Main,0,1,28,Graphic designer,True,z_AD,z_BD,False,Sure same,0,422.2,5355.0,8.585785982881848,2022-06-04 18:33:12
46,Main,0,1,29,Graphic designer,True,e_BC,e_AD,False,Sure same,0,422.2,5678.0,8.644354337032917,2022-06-04 18:33:12
47,Main,0,1,30,Graphic designer,True,b_AB,b_AD,True,Sure same,1,422.2,3715.0,8.220133957151859,2022-06-04 18:33:12
48,Main,0,1,31,Graphic designer,True,h_AD,h_AD,True,Sure different,0,422.2,4214.0,8.346167594364134,2022-06-04 18:33:12
49,Main,0,1,32,Graphic designer,True,n_AD,n_BC,False,Sure different,1,422.2,4140.0,8.32845106681936,2022-06-04 18:33:12
50,Main,0,1,33,Graphic designer,True,h_BD,h_AD,False,Sure different,1,422.2,4328.0,8.372860820526318,2022-06-04 18:33:12
51,Main,0,1,34,Graphic designer,True,c_AA,c_DD,False,Sure different,1,422.2,4034.0,8.302513718514158,2022-06-04 18:33:12
52,Main,0,1,35,Graphic designer,True,c_AD,c_BC,False,Sure same,0,422.2,6054.0,8.708474489581665,2022-06-04 18:33:12
53,Main,0,1,36,Graphic designer,True,q_AA,q_DD,False,Sure different,1,422.2,4545.0,8.421783006611578,2022-06-04 18:33:12
54,Main,0,1,37,Graphic designer,True,h_AA,h_DD,False,Sure different,1,422.2,3477.0,8.153925132007862,2022-06-04 18:33:12
55,Main,0,1,38,Graphic designer,True,h_BC,h_AD,False,Sure different,1,422.2,3362.0,8.120291313968561,2022-06-04 18:33:12
56,Main,0,1,39,Graphic designer,True,q_AD,q_AD,True,Sure different,0,422.2,5466.0,8.606302366488013,2022-06-04 18:33:12
57,Main,0,1,40,Graphic designer,True,z_DD,z_AA,False,Sure different,1,422.2,3502.0,8.161089512845797,2022-06-04 18:33:12
58,Main,0,1,41,Graphic designer,True,c_AB,c_AD,True,Sure different,0,422.2,4149.0,8.330622620332868,2022-06-04 18:33:12
59,Main,0,1,42,Graphic designer,True,a_AD,a_AD,True,Sure same,1,422.2,4438.0,8.39795910349254,2022-06-04 18:33:12
60,Main,0,1,43,Graphic designer,True,j_AA,j_AA,True,Sure same,1,422.2,3846.0,8.254788926148725,2022-06-04 18:33:12
61,Main,0,1,44,Graphic designer,True,n_AD,n_AB,True,Sure different,0,422.2,4554.0,8.423761246623686,2022-06-04 18:33:12
62,Main,0,1,45,Graphic designer,True,q_AD,q_BD,False,Sure same,0,422.2,4313.0,8.369388996647842,2022-06-04 18:33:12
63,Main,0,1,46,Graphic designer,True,e_AD,e_BD,False,Sure same,0,422.2,3551.0,8.174984532943087,2022-06-04 18:33:12
64,Main,0,1,47,Graphic designer,True,a_AD,a_AB,True,Sure same,1,422.2,3478.0,8.154212694914229,2022-06-04 18:33:12
65,Main,0,1,48,Graphic designer,True,c_AA,c_AA,True,Sure different,0,422.2,4082.0,8.31434234336979,2022-06-04 18:33:12
66,Main,0,1,49,Graphic designer,True,h_AA,h_AA,True,Sure same,1,422.2,4186.0,8.339500903005945,2022-06-04 18:33:12
67,Main,0,1,50,Graphic designer,True,a_BC,a_AD,False,Sure same,0,422.2,3486.0,8.156510226079966,2022-06-04 18:33:12
68,Main,0,1,51,Graphic designer,True,j_AA,j_DD,False,Sure different,1,422.2,3816.0,8.246958032568177,2022-06-04 18:33:12
69,Main,0,1,52,Graphic designer,True,e_AB,e_AD,True,Sure same,1,422.2,3460.0,8.14902386805177,2022-06-04 18:33:12
70,Main,0,1,53,Graphic designer,True,n_AD,n_BD,False,Sure same,0,422.2,4061.0,8.309184527686298,2022-06-04 18:33:12
71,Main,0,1,54,Graphic designer,True,n_AA,n_AA,True,Sure same,1,422.2,3651.0,8.202756381655638,2022-06-04 18:33:12
72,Main,0,1,55,Graphic designer,True,p_AA,p_AA,True,Sure same,1,422.2,3582.0,8.183676582620658,2022-06-04 18:33:12
73,Main,0,1,56,Graphic designer,True,b_AD,b_AD,True,Sure same,1,422.2,3580.0,8.183118079394745,2022-06-04 18:33:12
74,Main,0,1,57,Graphic designer,True,z_AD,z_AD,True,Sure same,1,422.2,3699.0,8.215817791832453,2022-06-04 18:33:12
75,Main,0,1,58,Graphic designer,True,b_AA,b_AA,True,Sure same,1,422.2,3575.0,8.181720455128108,2022-06-04 18:33:12
76,Main,0,1,59,Graphic designer,True,t_AD,t_AD,True,Sure same,1,422.2,3720.0,8.221478947267192,2022-06-04 18:33:12
77,Main,0,1,60,Graphic designer,True,n_AD,n_AD,True,Sure different,0,422.2,3753.0,8.23031079913502,2022-06-04 18:33:12
78,Main,0,1,61,Graphic designer,True,n_AA,n_DD,False,Sure different,1,422.2,6430.0,8.768729817231666,2022-06-04 18:33:12
79,Main,0,1,62,Graphic designer,True,t_AB,t_AD,True,Sure same,1,422.2,3876.0,8.262558973010657,2022-06-04 18:33:12
80,Main,0,1,63,Graphic designer,True,z_AD,z_BC,False,Sure same,0,422.2,4322.0,8.371473537066832,2022-06-04 18:33:12
81,Main,0,1,64,Graphic designer,True,q_AD,q_AB,True,Sure same,1,422.2,3858.0,8.257904193465674,2022-06-04 18:33:12
82,Main,0,1,65,Graphic designer,True,e_AA,e_AA,True,Sure same,1,422.2,4312.0,8.369157112588834,2022-06-04 18:33:12
83,Main,0,1,66,Graphic designer,True,r_AD,r_BD,False,Sure different,1,422.2,3762.0,8.232706009860976,2022-06-04 18:33:12
84,Main,0,1,67,Graphic designer,True,t_AD,t_BC,False,Sure different,1,422.2,4320.0,8.371010681238156,2022-06-04 18:33:12
85,Main,0,1,68,Graphic designer,True,t_BD,t_AD,False,Sure different,1,422.2,5444.0,8.602269363771356,2022-06-04 18:33:12
86,Main,0,1,69,Graphic designer,True,h_AB,h_AD,True,Sure different,0,422.2,3874.0,8.262042843966942,2022-06-04 18:33:12
87,Main,0,1,70,Graphic designer,True,b_AD,b_BC,False,Sure same,0,422.2,3524.0,8.16735198705607,2022-06-04 18:33:12
88,Main,0,1,71,Graphic designer,True,p_AD,p_BC,False,Sure same,0,422.2,3683.0,8.211482916445066,2022-06-04 18:33:12
89,Main,0,1,72,Graphic designer,True,p_AB,p_AD,True,Sure same,1,422.2,3442.0,8.143807976771484,2022-06-04 18:33:12
90,Main,0,0,19,Graphic designer,True,u_AD,u_BD,False,Sure different,1,725.0,5149.0,8.546557800046141,2022-06-04 18:33:12
91,Main,0,0,20,Graphic designer,True,i_AD,i_AD,True,Sure same,1,800.0,4310.0,8.368693183097793,2022-06-04 18:33:12
92,Main,1,0,1,Other designer,True,d_AD,d_BC,False,Probably same,0,800.0,8675.0,9.06820060481506,2022-06-04 18:12:59
93,Main,1,0,2,Other designer,True,u_DD,u_AA,False,Sure different,1,800.0,6072.0,8.711443319075466,2022-06-04 18:12:59
94,Main,1,0,3,Other designer,True,d_DD,d_AA,False,Sure different,1,800.0,4046.0,8.305484017727691,2022-06-04 18:12:59
95,Main,1,0,4,Other designer,True,d_AA,d_AA,True,Sure same,1,725.0,4322.0,8.371473537066832,2022-06-04 18:12:59
96,Main,1,0,5,Other designer,True,i_DD,i_AA,False,Sure different,1,650.0,3627.0,8.196161139282902,2022-06-04 18:12:59
97,Main,1,0,6,Other designer,True,d_AD,d_BC,False,Sure different,1,575.0,4154.0,8.331827004436057,2022-06-04 18:12:59
98,Main,1,0,7,Other designer,True,i_BD,i_AD,False,Sure different,1,500.0,3919.0,8.273591798199632,2022-06-04 18:12:59
99,Main,1,0,8,Other designer,True,d_BD,d_AD,False,Sure different,1,425.0,3033.0,8.017307507688582,2022-06-04 18:12:59
100,Main,1,0,9,Other designer,True,u_AB,u_AD,True,Sure same,1,350.0,3494.0,8.158802490694002,2022-06-04 18:12:59
101,Main,1,0,10,Other designer,True,d_AD,d_AB,True,Sure different,0,275.0,2872.0,7.962763930168115,2022-06-04 18:12:59
102,Main,1,0,11,Other designer,True,u_AD,u_BC,False,Sure different,1,200.0,3221.0,8.0774471493312,2022-06-04 18:12:59
103,Main,1,0,12,Other designer,True,u_AA,u_AA,True,Sure same,1,200.0,3478.0,8.154212694914229,2022-06-04 18:12:59
104,Main,1,0,13,Other designer,True,i_AD,i_BC,False,Sure different,1,275.0,3041.0,8.019941687677365,2022-06-04 18:12:59
105,Main,1,0,14,Other designer,True,i_AD,i_AB,True,Sure same,1,350.0,3768.0,8.234299635696253,2022-06-04 18:12:59
106,Main,1,0,15,Other designer,True,u_AD,u_AD,True,Sure same,1,425.0,3391.0,8.128880142125638,2022-06-04 18:12:59
107,Main,1,0,16,Other designer,True,u_AA,u_DD,False,Sure different,1,500.0,3127.0,8.047829357457841,2022-06-04 18:12:59
108,Main,1,0,17,Other designer,True,d_AD,d_AD,True,Probably same,1,575.0,4353.0,8.378620541552298,2022-06-04 18:12:59
109,Main,1,0,18,Other designer,True,i_AA,i_AA,True,Sure same,1,650.0,3723.0,8.222285073872717,2022-06-04 18:12:59
110,Main,1,1,1,Other designer,True,r_AB,r_AD,True,Sure same,1,188.9,6466.0,8.774312958285378,2022-06-04 18:12:59
111,Main,1,1,2,Other designer,True,z_AD,z_BC,False,Probably same,0,188.9,5603.0,8.631057447565285,2022-06-04 18:12:59
112,Main,1,1,3,Other designer,True,c_AD,c_BD,False,Sure same,0,188.9,3276.0,8.09437844497296,2022-06-04 18:12:59
113,Main,1,1,4,Other designer,True,q_AD,q_AB,True,Sure different,0,188.9,3304.0,8.102889134640868,2022-06-04 18:12:59
114,Main,1,1,5,Other designer,True,c_AB,c_AD,True,Sure different,0,188.9,3029.0,8.015987811027237,2022-06-04 18:12:59
115,Main,1,1,6,Other designer,True,z_AD,z_BD,False,Sure different,1,188.9,2857.0,7.957527402230773,2022-06-04 18:12:59
116,Main,1,1,7,Other designer,True,b_AA,b_DD,False,Sure different,1,188.9,2926.0,7.98139158158007,2022-06-04 18:12:59
117,Main,1,1,8,Other designer,True,a_AD,a_AB,True,Sure same,1,188.9,3109.0,8.042056410058754,2022-06-04 18:12:59
118,Main,1,1,9,Other designer,True,n_AB,n_AD,True,Sure same,1,188.9,2956.0,7.991592282068092,2022-06-04 18:12:59
119,Main,1,1,10,Other designer,True,z_AA,z_DD,False,Sure different,1,188.9,2820.0,7.944492163932159,2022-06-04 18:12:59
120,Main,1,1,11,Other designer,True,q_AA,q_DD,False,Sure different,1,188.9,2825.0,7.946263643580541,2022-06-04 18:12:59
121,Main,1,1,12,Other designer,True,a_BD,a_AD,False,Sure same,0,188.9,3108.0,8.041734711487537,2022-06-04 18:12:59
122,Main,1,1,13,Other designer,True,b_AA,b_AA,True,Sure same,1,188.9,2740.0,7.9157131993821155,2022-06-04 18:12:59
123,Main,1,1,14,Other designer,True,r_AD,r_BD,False,Sure same,0,188.9,3155.0,8.056743774975313,2022-06-04 18:12:59
124,Main,1,1,15,Other designer,True,e_AD,e_AB,True,Sure different,0,188.9,2761.0,7.923348211930154,2022-06-04 18:12:59
125,Main,1,1,16,Other designer,True,q_AD,q_AD,True,Sure same,1,188.9,3526.0,8.167919362957816,2022-06-04 18:12:59
126,Main,1,1,17,Other designer,True,z_AA,z_AA,True,Sure same,1,188.9,2805.0,7.9391588179567965,2022-06-04 18:12:59
127,Main,1,1,18,Other designer,True,p_AD,p_AD,True,Sure same,1,188.9,2622.0,7.871692664323645,2022-06-04 18:12:59
128,Main,1,1,19,Other designer,True,a_AA,a_DD,False,Sure different,1,188.9,2644.0,7.880048200971577,2022-06-04 18:12:59
129,Main,1,1,20,Other designer,True,b_AD,b_AB,True,Sure same,1,188.9,2744.0,7.917171988845776,2022-06-04 18:12:59
130,Main,1,1,21,Other designer,True,p_AD,p_BD,False,Sure different,1,188.9,3413.0,8.135346948906706,2022-06-04 18:12:59
131,Main,1,1,22,Other designer,True,h_AA,h_AA,True,Sure same,1,188.9,2857.0,7.957527402230773,2022-06-04 18:12:59
132,Main,1,1,23,Other designer,True,n_AA,n_DD,False,Sure different,1,188.9,2702.0,7.9017475185201445,2022-06-04 18:12:59
133,Main,1,1,24,Other designer,True,t_AD,t_AD,True,Sure same,1,188.9,2955.0,7.991253929840199,2022-06-04 18:12:59
134,Main,1,1,25,Other designer,True,j_AD,j_BD,False,Sure different,1,188.9,2788.0,7.933079771880415,2022-06-04 18:12:59
135,Main,1,1,26,Other designer,True,e_BD,e_AD,False,Sure different,1,188.9,2955.0,7.991253929840199,2022-06-04 18:12:59
136,Main,1,1,27,Other designer,True,q_AA,q_AA,True,Sure different,0,188.9,3104.0,8.04044688130311,2022-06-04 18:12:59
137,Main,1,1,28,Other designer,True,n_AA,n_AA,True,Sure same,1,188.9,3072.0,8.030084094267563,2022-06-04 18:12:59
138,Main,1,1,29,Other designer,True,h_AA,h_DD,False,Sure different,1,188.9,2682.0,7.894318063841624,2022-06-04 18:12:59
139,Main,1,1,30,Other designer,True,p_AD,p_AB,True,Sure different,0,188.9,2897.0,7.9714309977693505,2022-06-04 18:12:59
140,Main,1,1,31,Other designer,True,c_AA,c_AA,True,Sure different,0,188.9,2747.0,7.918264686095274,2022-06-04 18:12:59
141,Main,1,1,32,Other designer,True,z_AB,z_AD,True,Probably different,0,188.9,4397.0,8.388677769180811,2022-06-04 18:12:59
142,Main,1,1,33,Other designer,True,j_BC,j_AD,False,Sure different,1,188.9,2752.0,7.920083199053234,2022-06-04 18:12:59
143,Main,1,1,34,Other designer,True,j_AA,j_AA,True,Sure same,1,188.9,2915.0,7.977625098784593,2022-06-04 18:12:59
144,Main,1,1,35,Other designer,True,e_AD,e_AD,True,Sure different,0,188.9,2704.0,7.902487437162855,2022-06-04 18:12:59
145,Main,1,1,36,Other designer,True,h_AD,h_AB,True,Probably different,0,188.9,3480.0,8.15478757276852,2022-06-04 18:12:59
146,Main,1,1,37,Other designer,True,b_AD,b_AD,True,Sure same,1,188.9,3287.0,8.097730573664219,2022-06-04 18:12:59
147,Main,1,1,38,Other designer,True,r_AD,r_BC,False,Sure different,1,188.9,4740.0,8.463792414689122,2022-06-04 18:12:59
148,Main,1,1,39,Other designer,True,t_BC,t_AD,False,Sure same,0,188.9,2789.0,7.933438387627489,2022-06-04 18:12:59
149,Main,1,1,40,Other designer,True,h_AD,h_AD,True,Sure same,1,188.9,2721.0,7.908754738783246,2022-06-04 18:12:59
150,Main,1,1,41,Other designer,True,n_AD,n_BC,False,Sure different,1,188.9,2851.0,7.955425088912672,2022-06-04 18:12:59
151,Main,1,1,42,Other designer,True,q_BC,q_AD,False,Probably different,1,188.9,3558.0,8.17695386822578,2022-06-04 18:12:59
152,Main,1,1,43,Other designer,True,p_BC,p_AD,False,Sure different,1,188.9,3252.0,8.087025470667701,2022-06-04 18:12:59
153,Main,1,1,44,Other designer,True,p_AA,p_AA,True,Sure same,1,188.9,2682.0,7.894318063841624,2022-06-04 18:12:59
154,Main,1,1,45,Other designer,True,e_AD,e_BC,False,Sure different,1,188.9,3011.0,8.010027528481734,2022-06-04 18:12:59
155,Main,1,1,46,Other designer,True,t_AA,t_AA,True,Sure same,1,188.9,3509.0,8.163086375583216,2022-06-04 18:12:59
156,Main,1,1,47,Other designer,True,h_BD,h_AD,False,Sure different,1,188.9,2667.0,7.888709524182015,2022-06-04 18:12:59
157,Main,1,1,48,Other designer,True,b_BD,b_AD,False,Sure different,1,188.9,2687.0,7.8961806086154915,2022-06-04 18:12:59
158,Main,1,1,49,Other designer,True,z_AD,z_AD,True,Sure same,1,188.9,2743.0,7.916807490937603,2022-06-04 18:12:59
159,Main,1,1,50,Other designer,True,t_AD,t_BD,False,Probably different,1,188.9,4344.0,8.37655086161377,2022-06-04 18:12:59
160,Main,1,1,51,Other designer,True,j_AD,j_AD,True,Sure same,1,188.9,3071.0,8.029758520440822,2022-06-04 18:12:59
161,Main,1,1,52,Other designer,True,p_DD,p_AA,False,Sure different,1,188.9,2622.0,7.871692664323645,2022-06-04 18:12:59
162,Main,1,1,53,Other designer,True,j_AD,j_AB,True,Sure same,1,188.9,3158.0,8.057694194815587,2022-06-04 18:12:59
163,Main,1,1,54,Other designer,True,r_DD,r_AA,False,Sure different,1,188.9,2703.0,7.902117546276448,2022-06-04 18:12:59
164,Main,1,1,55,Other designer,True,a_AD,a_BC,False,Sure different,1,188.9,3351.0,8.11701408773731,2022-06-04 18:12:59
165,Main,1,1,56,Other designer,True,t_AB,t_AD,True,Probably different,0,188.9,3309.0,8.104401307921613,2022-06-04 18:12:59
166,Main,1,1,57,Other designer,True,r_AA,r_AA,True,Sure same,1,188.9,3078.0,8.032035314398824,2022-06-04 18:12:59
167,Main,1,1,58,Other designer,True,e_AA,e_AA,True,Sure same,1,188.9,3183.0,8.065579427282092,2022-06-04 18:12:59
168,Main,1,1,59,Other designer,True,a_AA,a_AA,True,Sure same,1,188.9,2824.0,7.945909598613133,2022-06-04 18:12:59
169,Main,1,1,60,Other designer,True,c_BC,c_AD,False,Sure different,1,188.9,2744.0,7.917171988845776,2022-06-04 18:12:59
170,Main,1,1,61,Other designer,True,t_DD,t_AA,False,Sure different,1,188.9,2649.0,7.88193748927207,2022-06-04 18:12:59
171,Main,1,1,62,Other designer,True,n_BD,n_AD,False,Sure different,1,188.9,4379.0,8.384575666801398,2022-06-04 18:12:59
172,Main,1,1,63,Other designer,True,b_BC,b_AD,False,Sure different,1,188.9,2641.0,7.878912912297133,2022-06-04 18:12:59
173,Main,1,1,64,Other designer,True,c_AD,c_AD,True,Probably different,0,188.9,3716.0,8.22040309993373,2022-06-04 18:12:59
174,Main,1,1,65,Other designer,True,r_AD,r_AD,True,Sure different,0,188.9,2892.0,7.969703583278656,2022-06-04 18:12:59
175,Main,1,1,66,Other designer,True,n_AD,n_AD,True,Sure same,1,188.9,3060.0,8.026170194946426,2022-06-04 18:12:59
176,Main,1,1,67,Other designer,True,e_AA,e_DD,False,Sure different,1,188.9,2756.0,7.9215356321335495,2022-06-04 18:12:59
177,Main,1,1,68,Other designer,True,j_AA,j_DD,False,Sure different,1,188.9,2776.0,7.9287663216266955,2022-06-04 18:12:59
178,Main,1,1,69,Other designer,True,a_AD,a_AD,True,Sure same,1,188.9,2712.0,7.905441649060286,2022-06-04 18:12:59
179,Main,1,1,70,Other designer,True,q_AD,q_BD,False,Sure different,1,188.9,2825.0,7.946263643580541,2022-06-04 18:12:59
180,Main,1,1,71,Other designer,True,c_AA,c_DD,False,Sure different,1,188.9,2567.0,7.8504931808711405,2022-06-04 18:12:59
181,Main,1,1,72,Other designer,True,h_AD,h_BC,False,Sure different,1,188.9,2642.0,7.879291485082271,2022-06-04 18:12:59
182,Main,1,0,19,Other designer,True,u_BD,u_AD,False,Sure different,1,725.0,3651.0,8.202756381655638,2022-06-04 18:12:59
183,Main,1,0,20,Other designer,True,i_AD,i_AD,True,Sure same,1,800.0,7963.0,8.982561092257445,2022-06-04 18:12:59
184,Main,2,0,1,Graphic designer,True,d_AD,d_BC,False,Sure different,1,800.0,9516.0,9.160729871422848,2022-06-04 18:11:57
185,Main,2,0,2,Graphic designer,True,u_DD,u_AA,False,Sure different,1,800.0,4032.0,8.302017809751204,2022-06-04 18:11:57
186,Main,2,0,3,Graphic designer,True,d_AA,d_DD,False,Sure different,1,800.0,3672.0,8.20849175174038,2022-06-04 18:11:57
187,Main,2,0,4,Graphic designer,True,d_AA,d_AA,True,Sure same,1,725.0,4059.0,8.308691916838898,2022-06-04 18:11:57
188,Main,2,0,5,Graphic designer,True,i_DD,i_AA,False,Sure different,1,650.0,3307.0,8.103796712981794,2022-06-04 18:11:57
189,Main,2,0,6,Graphic designer,True,d_AD,d_BC,False,Probably same,0,575.0,6713.0,8.811801223938751,2022-06-04 18:11:57
190,Main,2,0,7,Graphic designer,True,i_AD,i_BD,False,Sure different,1,500.0,3502.0,8.161089512845797,2022-06-04 18:11:57
191,Main,2,0,8,Graphic designer,True,d_AD,d_BD,False,Sure same,0,425.0,3595.0,8.187299270155147,2022-06-04 18:11:57
192,Main,2,0,9,Graphic designer,True,u_AB,u_AD,True,Sure different,0,350.0,4220.0,8.347590407030058,2022-06-04 18:11:57
193,Main,2,0,10,Graphic designer,True,d_AB,d_AD,True,Sure same,1,275.0,3598.0,8.188133414510478,2022-06-04 18:11:57
194,Main,2,0,11,Graphic designer,True,u_AD,u_BC,False,Sure different,1,200.0,3047.0,8.021912778985708,2022-06-04 18:11:57
195,Main,2,0,12,Graphic designer,True,u_AA,u_AA,True,Sure same,1,200.0,2749.0,7.918992488165245,2022-06-04 18:11:57
196,Main,2,0,13,Graphic designer,True,i_AD,i_BC,False,Sure different,1,275.0,3110.0,8.04237800517328,2022-06-04 18:11:57
197,Main,2,0,14,Graphic designer,True,i_AD,i_AB,True,Sure same,1,350.0,3528.0,8.168486417126681,2022-06-04 18:11:57
198,Main,2,0,15,Graphic designer,True,u_AD,u_AD,True,Sure same,1,425.0,3559.0,8.177234885510194,2022-06-04 18:11:57
199,Main,2,0,16,Graphic designer,True,u_DD,u_AA,False,Sure different,1,500.0,3161.0,8.058643712215618,2022-06-04 18:11:57
200,Main,2,0,17,Graphic designer,True,d_AD,d_AD,True,Sure same,1,575.0,3958.0,8.28349412616251,2022-06-04 18:11:57
201,Main,2,0,18,Graphic designer,True,i_AA,i_AA,True,Sure same,1,650.0,3822.0,8.248529124800218,2022-06-04 18:11:57
202,Main,2,1,1,Graphic designer,True,a_DD,a_AA,False,Sure different,1,266.7,5159.0,8.54849804124465,2022-06-04 18:11:57
203,Main,2,1,2,Graphic designer,True,a_AA,a_AA,True,Sure same,1,266.7,3058.0,8.025516386489008,2022-06-04 18:11:57
204,Main,2,1,3,Graphic designer,True,j_AA,j_DD,False,Sure different,1,266.7,2850.0,7.955074273262696,2022-06-04 18:11:57
205,Main,2,1,4,Graphic designer,True,j_AD,j_AD,True,Sure same,1,266.7,3005.0,8.008032846969307,2022-06-04 18:11:57
206,Main,2,1,5,Graphic designer,True,p_AB,p_AD,True,Sure same,1,266.7,3401.0,8.131824785007195,2022-06-04 18:11:57
207,Main,2,1,6,Graphic designer,True,q_AA,q_DD,False,Sure different,1,266.7,2828.0,7.947325027016463,2022-06-04 18:11:57
208,Main,2,1,7,Graphic designer,True,z_AD,z_AD,True,Sure same,1,266.7,3201.0,8.071218539969863,2022-06-04 18:11:57
209,Main,2,1,8,Graphic designer,True,j_AD,j_AB,True,Sure same,1,266.7,3424.0,8.138564737261632,2022-06-04 18:11:57
210,Main,2,1,9,Graphic designer,True,r_AA,r_DD,False,Sure different,1,266.7,2870.0,7.962067308753666,2022-06-04 18:11:57
211,Main,2,1,10,Graphic designer,True,c_AA,c_AA,True,Sure same,1,266.7,2852.0,7.955775781534187,2022-06-04 18:11:57
212,Main,2,1,11,Graphic designer,True,t_BC,t_AD,False,Sure same,0,266.7,3331.0,8.11102783819368,2022-06-04 18:11:57
213,Main,2,1,12,Graphic designer,True,t_AB,t_AD,True,Sure same,1,266.7,2886.0,7.9676267393338165,2022-06-04 18:11:57
214,Main,2,1,13,Graphic designer,True,b_AD,b_BC,False,Sure different,1,266.7,2944.0,7.987524479848767,2022-06-04 18:11:57
215,Main,2,1,14,Graphic designer,True,h_DD,h_AA,False,Sure different,1,266.7,2849.0,7.954723334497908,2022-06-04 18:11:57
216,Main,2,1,15,Graphic designer,True,e_AA,e_DD,False,Sure same,0,266.7,2852.0,7.955775781534187,2022-06-04 18:11:57
217,Main,2,1,16,Graphic designer,True,z_BC,z_AD,False,Sure same,0,266.7,3024.0,8.014335737299424,2022-06-04 18:11:57
218,Main,2,1,17,Graphic designer,True,z_AA,z_AA,True,Sure same,1,266.7,2685.0,7.895436006942965,2022-06-04 18:11:57
219,Main,2,1,18,Graphic designer,True,n_AD,n_BD,False,Sure different,1,266.7,3062.0,8.026823576217629,2022-06-04 18:11:57
220,Main,2,1,19,Graphic designer,True,e_AA,e_AA,True,Sure same,1,266.7,2987.0,8.00202481821611,2022-06-04 18:11:57
221,Main,2,1,20,Graphic designer,True,c_AD,c_AB,True,Sure same,1,266.7,2861.0,7.95892649305011,2022-06-04 18:11:57
222,Main,2,1,21,Graphic designer,True,n_AA,n_AA,True,Sure same,1,266.7,2939.0,7.985824666418917,2022-06-04 18:11:57
223,Main,2,1,22,Graphic designer,True,p_AA,p_DD,False,Sure different,1,266.7,2815.0,7.942717540573791,2022-06-04 18:11:57
224,Main,2,1,23,Graphic designer,True,h_AD,h_AD,True,Probably same,1,266.7,3870.0,8.261009786023827,2022-06-04 18:11:57
225,Main,2,1,24,Graphic designer,True,q_AD,q_AD,True,Sure same,1,266.7,3411.0,8.134760782418645,2022-06-04 18:11:57
226,Main,2,1,25,Graphic designer,True,r_AD,r_BD,False,Probably different,1,266.7,3697.0,8.215276958936633,2022-06-04 18:11:57
227,Main,2,1,26,Graphic designer,True,c_AD,c_AD,True,Probably same,1,266.7,5262.0,8.568266461600238,2022-06-04 18:11:57
228,Main,2,1,27,Graphic designer,True,p_AD,p_BC,False,Sure different,1,266.7,3494.0,8.158802490694002,2022-06-04 18:11:57
229,Main,2,1,28,Graphic designer,True,j_AA,j_AA,True,Probably same,1,266.7,4326.0,8.372398606513004,2022-06-04 18:11:57
230,Main,2,1,29,Graphic designer,True,a_BC,a_AD,False,Probably same,0,266.7,4707.0,8.456806041401142,2022-06-04 18:11:57
231,Main,2,1,30,Graphic designer,True,j_BD,j_AD,False,Sure different,1,266.7,3092.0,8.036573409707312,2022-06-04 18:11:57
232,Main,2,1,31,Graphic designer,True,r_AD,r_BC,False,Probably different,1,266.7,3656.0,8.204124932574041,2022-06-04 18:11:57
233,Main,2,1,32,Graphic designer,True,q_AD,q_BC,False,Sure different,1,266.7,3221.0,8.0774471493312,2022-06-04 18:11:57
234,Main,2,1,33,Graphic designer,True,p_AD,p_BD,False,Sure different,1,266.7,3256.0,8.08825472712243,2022-06-04 18:11:57
235,Main,2,1,34,Graphic designer,True,t_AD,t_AD,True,Sure same,1,266.7,3657.0,8.204398418149381,2022-06-04 18:11:57
236,Main,2,1,35,Graphic designer,True,t_DD,t_AA,False,Sure different,1,266.7,3105.0,8.040768994367578,2022-06-04 18:11:57
237,Main,2,1,36,Graphic designer,True,h_AA,h_AA,True,Probably different,0,266.7,4604.0,8.434680769841773,2022-06-04 18:11:57
238,Main,2,1,37,Graphic designer,True,p_AD,p_AD,True,Probably different,0,266.7,3715.0,8.220133957151859,2022-06-04 18:11:57
239,Main,2,1,38,Graphic designer,True,q_AB,q_AD,True,Sure same,1,266.7,3496.0,8.159374736775426,2022-06-04 18:11:57
240,Main,2,1,39,Graphic designer,True,q_AA,q_AA,True,Probably same,1,266.7,3394.0,8.129764445794171,2022-06-04 18:11:57
241,Main,2,1,40,Graphic designer,True,j_BC,j_AD,False,Sure different,1,266.7,2940.0,7.986164860332727,2022-06-04 18:11:57
242,Main,2,1,41,Graphic designer,True,p_AA,p_AA,True,Sure same,1,266.7,3453.0,8.146998697389993,2022-06-04 18:11:57
243,Main,2,1,42,Graphic designer,True,n_AD,n_BC,False,Probably different,1,266.7,3889.0,8.265907334155747,2022-06-04 18:11:57
244,Main,2,1,43,Graphic designer,True,r_AB,r_AD,True,Sure same,1,266.7,3412.0,8.13505390861157,2022-06-04 18:11:57
245,Main,2,1,44,Graphic designer,True,e_AD,e_BD,False,Probably same,0,266.7,4446.0,8.399760094524142,2022-06-04 18:11:57
246,Main,2,1,45,Graphic designer,True,a_AD,a_AD,True,Probably same,1,266.7,3851.0,8.25608813381491,2022-06-04 18:11:57
247,Main,2,1,46,Graphic designer,True,b_AD,b_AD,True,Probably same,1,266.7,3955.0,8.282735880201754,2022-06-04 18:11:57
248,Main,2,1,47,Graphic designer,True,r_AD,r_AD,True,Sure same,1,266.7,3538.0,8.17131687471973,2022-06-04 18:11:57
249,Main,2,1,48,Graphic designer,True,n_AA,n_DD,False,Sure different,1,266.7,3082.0,8.033334015880062,2022-06-04 18:11:57
250,Main,2,1,49,Graphic designer,True,e_AD,e_BC,False,Sure same,0,266.7,4064.0,8.309922989258318,2022-06-04 18:11:57
251,Main,2,1,50,Graphic designer,True,t_BD,t_AD,False,Sure different,1,266.7,3070.0,8.029432840581244,2022-06-04 18:11:57
252,Main,2,1,51,Graphic designer,True,c_AD,c_BC,False,Sure different,1,266.7,3020.0,8.013012110368916,2022-06-04 18:11:57
253,Main,2,1,52,Graphic designer,True,b_AA,b_DD,False,Sure different,1,266.7,3121.0,8.045908742270779,2022-06-04 18:11:57
254,Main,2,1,53,Graphic designer,True,h_BD,h_AD,False,Sure different,1,266.7,2728.0,7.911324018963353,2022-06-04 18:11:57
255,Main,2,1,54,Graphic designer,True,b_AD,b_AB,True,Probably same,1,266.7,3977.0,8.28828304520769,2022-06-04 18:11:57
256,Main,2,1,55,Graphic designer,True,b_BD,b_AD,False,Sure different,1,266.7,4653.0,8.445267451844648,2022-06-04 18:11:57
257,Main,2,1,56,Graphic designer,True,z_AD,z_AB,True,Sure same,1,266.7,3095.0,8.037543185118697,2022-06-04 18:11:57
258,Main,2,1,57,Graphic designer,True,t_AA,t_AA,True,Probably same,1,266.7,3683.0,8.211482916445066,2022-06-04 18:11:57
259,Main,2,1,58,Graphic designer,True,e_AD,e_AD,True,Probably same,1,266.7,3159.0,8.058010800802085,2022-06-04 18:11:57
260,Main,2,1,59,Graphic designer,True,h_BC,h_AD,False,Sure different,1,266.7,2887.0,7.967973179662935,2022-06-04 18:11:57
261,Main,2,1,60,Graphic designer,True,h_AD,h_AB,True,Probably same,1,266.7,3906.0,8.270269111436624,2022-06-04 18:11:57
262,Main,2,1,61,Graphic designer,True,a_AD,a_BD,False,Sure same,0,266.7,3797.0,8.241966560231802,2022-06-04 18:11:57
263,Main,2,1,62,Graphic designer,True,n_AD,n_AD,True,Sure same,1,266.7,3051.0,8.02322468471667,2022-06-04 18:11:57
264,Main,2,1,63,Graphic designer,True,z_BD,z_AD,False,Sure different,1,266.7,2786.0,7.932362154339751,2022-06-04 18:11:57
265,Main,2,1,64,Graphic designer,True,r_AA,r_AA,True,Probably same,1,266.7,5346.0,8.584103896698863,2022-06-04 18:11:57
266,Main,2,1,65,Graphic designer,True,q_AD,q_BD,False,Probably same,0,266.7,4575.0,8.428361977709622,2022-06-04 18:11:57
267,Main,2,1,66,Graphic designer,True,z_DD,z_AA,False,Sure different,1,266.7,2711.0,7.905072849498666,2022-06-04 18:11:57
268,Main,2,1,67,Graphic designer,True,e_AD,e_AB,True,Probably same,1,266.7,3797.0,8.241966560231802,2022-06-04 18:11:57
269,Main,2,1,68,Graphic designer,True,c_DD,c_AA,False,Sure different,1,266.7,2941.0,7.9865049385539955,2022-06-04 18:11:57
270,Main,2,1,69,Graphic designer,True,n_AB,n_AD,True,Probably same,1,266.7,3521.0,8.166500319155052,2022-06-04 18:11:57
271,Main,2,1,70,Graphic designer,True,a_AD,a_AB,True,Probably same,1,266.7,3456.0,8.147867129923947,2022-06-04 18:11:57
272,Main,2,1,71,Graphic designer,True,c_BD,c_AD,False,Sure different,1,266.7,3267.0,8.09162741160107,2022-06-04 18:11:57
273,Main,2,1,72,Graphic designer,True,b_AA,b_AA,True,Probably same,1,266.7,3908.0,8.270781013162674,2022-06-04 18:11:57
274,Main,2,0,19,Graphic designer,True,u_AD,u_BD,False,Sure different,1,725.0,3610.0,8.191463051326927,2022-06-04 18:11:57
275,Main,2,0,20,Graphic designer,True,i_AD,i_AD,True,Sure same,1,800.0,4119.0,8.323365694436081,2022-06-04 18:11:57
276,Main,3,0,1,Non-designer,False,d_BC,d_AD,False,Probably same,0,800.0,15377.0,9.640628165515693,2022-06-04 17:49:58
277,Main,3,0,2,Non-designer,False,u_AA,u_DD,False,Probably different,1,800.0,4954.0,8.507950610049305,2022-06-04 17:49:58
278,Main,3,0,3,Non-designer,False,d_DD,d_AA,False,Probably same,0,800.0,5348.0,8.584477938221834,2022-06-04 17:49:58
279,Main,3,0,4,Non-designer,False,d_AA,d_AA,True,Probably same,1,725.0,4291.0,8.364275084991524,2022-06-04 17:49:58
280,Main,3,0,5,Non-designer,False,i_AA,i_DD,False,Probably different,1,650.0,4336.0,8.374707543119483,2022-06-04 17:49:58
281,Main,3,0,6,Non-designer,False,d_BC,d_AD,False,Probably same,0,575.0,3330.0,8.110727582974489,2022-06-04 17:49:58
282,Main,3,0,7,Non-designer,False,i_AD,i_BD,False,Probably same,0,500.0,2818.0,7.943782692458625,2022-06-04 17:49:58
283,Main,3,0,8,Non-designer,False,d_AD,d_BD,False,Probably same,0,425.0,2728.0,7.911324018963353,2022-06-04 17:49:58
284,Main,3,0,9,Non-designer,False,u_AD,u_AB,True,Probably different,0,350.0,3560.0,8.177515823846075,2022-06-04 17:49:58
285,Main,3,0,10,Non-designer,False,d_AD,d_AB,True,Probably same,1,275.0,3544.0,8.173011311724972,2022-06-04 17:49:58
286,Main,3,0,11,Non-designer,False,u_AD,u_BC,False,Probably same,0,200.0,2887.0,7.967973179662935,2022-06-04 17:49:58
287,Main,3,0,12,Non-designer,False,u_AA,u_AA,True,Probably different,0,200.0,2745.0,7.917536353943631,2022-06-04 17:49:58
288,Main,3,0,13,Non-designer,False,i_AD,i_BC,False,Probably different,1,275.0,2850.0,7.955074273262696,2022-06-04 17:49:58
289,Main,3,0,14,Non-designer,False,i_AB,i_AD,True,Sure different,0,350.0,3544.0,8.173011311724972,2022-06-04 17:49:58
290,Main,3,0,15,Non-designer,False,u_AD,u_AD,True,Probably same,1,425.0,3182.0,8.065265208897733,2022-06-04 17:49:58
291,Main,3,0,16,Non-designer,False,u_DD,u_AA,False,Sure different,1,500.0,3136.0,8.0507033814703,2022-06-04 17:49:58
292,Main,3,0,17,Non-designer,False,d_AD,d_AD,True,Probably same,1,575.0,3442.0,8.143807976771484,2022-06-04 17:49:58
293,Main,3,0,18,Non-designer,False,i_AA,i_AA,True,Probably same,1,650.0,3145.0,8.05356916913454,2022-06-04 17:49:58
294,Main,3,1,1,Non-designer,False,a_AB,a_AD,True,Probably same,1,500.0,5875.0,8.67846133901236,2022-06-04 17:49:58
295,Main,3,1,2,Non-designer,False,p_BC,p_AD,False,Probably same,0,500.0,2966.0,7.994969522697877,2022-06-04 17:49:58
296,Main,3,1,3,Non-designer,False,r_AD,r_AD,True,Probably same,1,500.0,3112.0,8.043020885298283,2022-06-04 17:49:58
297,Main,3,1,4,Non-designer,False,c_DD,c_AA,False,Sure different,1,500.0,3390.0,8.128585200374497,2022-06-04 17:49:58
298,Main,3,1,5,Non-designer,False,r_AD,r_BC,False,Probably same,0,500.0,3999.0,8.293799608846818,2022-06-04 17:49:58
299,Main,3,1,6,Non-designer,False,z_AD,z_AB,True,Sure different,0,500.0,3118.0,8.044947049617722,2022-06-04 17:49:58
300,Main,3,1,7,Non-designer,False,p_AA,p_AA,True,Probably different,0,500.0,3498.0,8.159946655578548,2022-06-04 17:49:58
301,Main,3,1,8,Non-designer,False,e_AD,e_AD,True,Probably same,1,500.0,2896.0,7.971085753505607,2022-06-04 17:49:58
302,Main,3,1,9,Non-designer,False,b_BC,b_AD,False,Probably same,0,500.0,2720.0,7.908387159290043,2022-06-04 17:49:58
303,Main,3,1,10,Non-designer,False,r_AD,r_BD,False,Probably same,0,500.0,2959.0,7.99260665240021,2022-06-04 17:49:58
304,Main,3,1,11,Non-designer,False,c_BC,c_AD,False,Probably different,1,500.0,2988.0,8.002359546252707,2022-06-04 17:49:58
305,Main,3,1,12,Non-designer,False,t_AD,t_BC,False,Probably same,0,500.0,3012.0,8.010359588919783,2022-06-04 17:49:58
306,Main,3,1,13,Non-designer,False,z_BD,z_AD,False,Probably same,0,500.0,2621.0,7.8713112033234065,2022-06-04 17:49:58
307,Main,3,1,14,Non-designer,False,a_AD,a_BD,False,Probably same,0,500.0,2672.0,7.890582534656536,2022-06-04 17:49:58
308,Main,3,1,15,Non-designer,False,p_AA,p_DD,False,Sure different,1,500.0,3196.0,8.069655306886165,2022-06-04 17:49:58
309,Main,3,1,16,Non-designer,False,e_AA,e_AA,True,Probably same,1,500.0,2989.0,8.002694162283937,2022-06-04 17:49:58
310,Main,3,1,17,Non-designer,False,q_BC,q_AD,False,Probably same,0,500.0,2697.0,7.89989532313973,2022-06-04 17:49:58
311,Main,3,1,18,Non-designer,False,n_AD,n_BC,False,Probably different,1,500.0,3343.0,8.114623886420098,2022-06-04 17:49:58
312,Main,3,1,19,Non-designer,False,b_AA,b_AA,True,Probably same,1,500.0,3336.0,8.112527763478637,2022-06-04 17:49:58
313,Main,3,1,20,Non-designer,False,j_AD,j_AD,True,Probably same,1,500.0,2704.0,7.902487437162855,2022-06-04 17:49:58
314,Main,3,1,21,Non-designer,False,r_AA,r_AA,True,Probably same,1,500.0,3072.0,8.030084094267563,2022-06-04 17:49:58
315,Main,3,1,22,Non-designer,False,p_AD,p_AD,True,Probably same,1,500.0,2767.0,7.925518979786926,2022-06-04 17:49:58
316,Main,3,1,23,Non-designer,False,n_AA,n_AA,True,Probably same,1,500.0,2721.0,7.908754738783246,2022-06-04 17:49:58
317,Main,3,1,24,Non-designer,False,c_AD,c_AD,True,Probably same,1,500.0,2410.0,7.787382026484701,2022-06-04 17:49:58
318,Main,3,1,25,Non-designer,False,c_AA,c_AA,True,Probably different,0,500.0,4768.0,8.469682208745185,2022-06-04 17:49:58
319,Main,3,1,26,Non-designer,False,t_DD,t_AA,False,Probably different,1,500.0,3165.0,8.059908334578276,2022-06-04 17:49:58
320,Main,3,1,27,Non-designer,False,n_AD,n_BD,False,Probably same,0,500.0,3043.0,8.02059914989697,2022-06-04 17:49:58
321,Main,3,1,28,Non-designer,False,t_BD,t_AD,False,Probably same,0,500.0,2889.0,7.968665700466235,2022-06-04 17:49:58
322,Main,3,1,29,Non-designer,False,c_AD,c_BD,False,Probably same,0,500.0,2473.0,7.813187267521416,2022-06-04 17:49:58
323,Main,3,1,30,Non-designer,False,h_BC,h_AD,False,Probably same,0,500.0,2719.0,7.908019444632471,2022-06-04 17:49:58
324,Main,3,1,31,Non-designer,False,q_AD,q_AD,True,Probably same,1,500.0,2751.0,7.919719760924575,2022-06-04 17:49:58
325,Main,3,1,32,Non-designer,False,r_DD,r_AA,False,Sure different,1,500.0,2995.0,8.00469951054955,2022-06-04 17:49:58
326,Main,3,1,33,Non-designer,False,p_BD,p_AD,False,Probably same,0,500.0,2744.0,7.917171988845776,2022-06-04 17:49:58
327,Main,3,1,34,Non-designer,False,e_AB,e_AD,True,Sure different,0,500.0,2935.0,7.984462732262196,2022-06-04 17:49:58
328,Main,3,1,35,Non-designer,False,n_AD,n_AD,True,Probably same,1,500.0,2766.0,7.925157512224703,2022-06-04 17:49:58
329,Main,3,1,36,Non-designer,False,n_AA,n_DD,False,Sure different,1,500.0,2934.0,7.984121958702927,2022-06-04 17:49:58
330,Main,3,1,37,Non-designer,False,j_DD,j_AA,False,Sure different,1,500.0,2849.0,7.954723334497908,2022-06-04 17:49:58
331,Main,3,1,38,Non-designer,False,b_BD,b_AD,False,Probably same,0,500.0,2997.0,8.005367067316664,2022-06-04 17:49:58
332,Main,3,1,39,Non-designer,False,t_AA,t_AA,True,Probably different,0,500.0,3119.0,8.045267716607803,2022-06-04 17:49:58
333,Main,3,1,40,Non-designer,False,z_AD,z_AD,True,Probably same,1,500.0,2990.0,8.003028666384733,2022-06-04 17:49:58
334,Main,3,1,41,Non-designer,False,a_AA,a_AA,True,Probably same,1,500.0,2772.0,7.927324360309794,2022-06-04 17:49:58
335,Main,3,1,42,Non-designer,False,r_AB,r_AD,True,Probably different,0,500.0,2952.0,7.990238185720363,2022-06-04 17:49:58
336,Main,3,1,43,Non-designer,False,a_AD,a_BC,False,Probably same,0,500.0,3066.0,8.028129059431759,2022-06-04 17:49:58
337,Main,3,1,44,Non-designer,False,z_AA,z_AA,True,Probably same,1,500.0,2904.0,7.973844375944687,2022-06-04 17:49:58
338,Main,3,1,45,Non-designer,False,c_AB,c_AD,True,Sure different,0,500.0,2933.0,7.983781068977451,2022-06-04 17:49:58
339,Main,3,1,46,Non-designer,False,h_AD,h_AD,True,Probably same,1,500.0,2759.0,7.922623574217286,2022-06-04 17:49:58
340,Main,3,1,47,Non-designer,False,t_AD,t_AD,True,Probably same,1,500.0,3157.0,8.057377488557991,2022-06-04 17:49:58
341,Main,3,1,48,Non-designer,False,j_BD,j_AD,False,Probably same,0,500.0,2466.0,7.81035268372429,2022-06-04 17:49:58
342,Main,3,1,49,Non-designer,False,q_AA,q_AA,True,Probably same,1,500.0,2735.0,7.913886714856082,2022-06-04 17:49:58
343,Main,3,1,50,Non-designer,False,h_AA,h_DD,False,Sure different,1,500.0,3036.0,8.01829613851552,2022-06-04 17:49:58
344,Main,3,1,51,Non-designer,False,q_AD,q_AB,True,Probably same,1,500.0,3080.0,8.03268487596762,2022-06-04 17:49:58
345,Main,3,1,52,Non-designer,False,p_AD,p_AB,True,Probably different,0,500.0,3251.0,8.086717920303906,2022-06-04 17:49:58
346,Main,3,1,53,Non-designer,False,q_AD,q_BD,False,Probably same,0,500.0,2751.0,7.919719760924575,2022-06-04 17:49:58
347,Main,3,1,54,Non-designer,False,z_DD,z_AA,False,Sure different,1,500.0,2919.0,7.978996370854115,2022-06-04 17:49:58
348,Main,3,1,55,Non-designer,False,a_DD,a_AA,False,Sure different,1,500.0,3420.0,8.13739583005665,2022-06-04 17:49:58
349,Main,3,1,56,Non-designer,False,b_AD,b_AD,True,Probably same,1,500.0,2981.0,8.000014093678072,2022-06-04 17:49:58
350,Main,3,1,57,Non-designer,False,j_AA,j_AA,True,Probably same,1,500.0,2704.0,7.902487437162855,2022-06-04 17:49:58
351,Main,3,1,58,Non-designer,False,h_AA,h_AA,True,Probably same,1,500.0,3715.0,8.220133957151859,2022-06-04 17:49:58
352,Main,3,1,59,Non-designer,False,z_AD,z_BC,False,Probably same,0,500.0,2824.0,7.945909598613133,2022-06-04 17:49:58
353,Main,3,1,60,Non-designer,False,h_BD,h_AD,False,Probably same,0,500.0,2752.0,7.920083199053234,2022-06-04 17:49:58
354,Main,3,1,61,Non-designer,False,h_AD,h_AB,True,Probably different,0,500.0,3327.0,8.109826276018477,2022-06-04 17:49:58
355,Main,3,1,62,Non-designer,False,n_AD,n_AB,True,Probably different,0,500.0,3004.0,8.007700012884026,2022-06-04 17:49:58
356,Main,3,1,63,Non-designer,False,q_DD,q_AA,False,Sure different,1,500.0,3228.0,8.07961802938984,2022-06-04 17:49:58
357,Main,3,1,64,Non-designer,False,b_AA,b_DD,False,Probably different,1,500.0,3205.0,8.07246736935477,2022-06-04 17:49:58
358,Main,3,1,65,Non-designer,False,e_AA,e_DD,False,Sure different,1,500.0,2996.0,8.005033344637111,2022-06-04 17:49:58
359,Main,3,1,66,Non-designer,False,a_AD,a_AD,True,Probably different,0,500.0,2927.0,7.9817332866918855,2022-06-04 17:49:58
360,Main,3,1,67,Non-designer,False,e_AD,e_BD,False,Probably same,0,500.0,2966.0,7.994969522697877,2022-06-04 17:49:58
361,Main,3,1,68,Non-designer,False,b_AB,b_AD,True,Probably same,1,500.0,4076.0,8.312871394342615,2022-06-04 17:49:58
362,Main,3,1,69,Non-designer,False,j_AB,j_AD,True,Sure different,0,500.0,2926.0,7.98139158158007,2022-06-04 17:49:58
363,Main,3,1,70,Non-designer,False,t_AD,t_AB,True,Probably different,0,500.0,3288.0,8.098034756176071,2022-06-04 17:49:58
364,Main,3,1,71,Non-designer,False,j_AD,j_BC,False,Probably same,0,500.0,3406.0,8.133293861222633,2022-06-04 17:49:58
365,Main,3,1,72,Non-designer,False,e_BC,e_AD,False,Probably same,0,500.0,3474.0,8.153061946801051,2022-06-04 17:49:58
366,Main,3,0,19,Non-designer,False,u_AD,u_BD,False,Probably same,0,725.0,3089.0,8.035602692918582,2022-06-04 17:49:58
367,Main,3,0,20,Non-designer,False,i_AD,i_AD,True,Probably same,1,800.0,3235.0,8.081784206935001,2022-06-04 17:49:58
368,Main,4,0,1,Typographer,True,d_BC,d_AD,False,Probably same,0,800.0,9947.0,9.205026277152413,2022-06-04 17:49:50
369,Main,4,0,2,Typographer,True,u_AA,u_DD,False,Sure different,1,800.0,4793.0,8.474911799159631,2022-06-04 17:49:50
370,Main,4,0,3,Typographer,True,d_DD,d_AA,False,Sure different,1,800.0,3754.0,8.230577217146454,2022-06-04 17:49:50
371,Main,4,0,4,Typographer,True,d_AA,d_AA,True,Sure same,1,725.0,3879.0,8.263332667439967,2022-06-04 17:49:50
372,Main,4,0,5,Typographer,True,i_DD,i_AA,False,Sure different,1,650.0,3429.0,8.14002395246292,2022-06-04 17:49:50
373,Main,4,0,6,Typographer,True,d_BC,d_AD,False,Sure different,1,575.0,3438.0,8.142645185942795,2022-06-04 17:49:50
374,Main,4,0,7,Typographer,True,i_BD,i_AD,False,Sure different,1,500.0,4020.0,8.299037181613066,2022-06-04 17:49:50
375,Main,4,0,8,Typographer,True,d_BD,d_AD,False,Sure different,1,425.0,3143.0,8.052933036797567,2022-06-04 17:49:50
376,Main,4,0,9,Typographer,True,u_AD,u_AB,True,Probably same,1,350.0,4058.0,8.30844552038576,2022-06-04 17:49:50
377,Main,4,0,10,Typographer,True,d_AD,d_AB,True,Sure same,1,275.0,3555.0,8.176110342237342,2022-06-04 17:49:50
378,Main,4,0,11,Typographer,True,u_AD,u_BC,False,Sure different,1,200.0,3066.0,8.028129059431759,2022-06-04 17:49:50
379,Main,4,0,12,Typographer,True,u_AA,u_AA,True,Sure same,1,200.0,3335.0,8.112227958349724,2022-06-04 17:49:50
380,Main,4,0,13,Typographer,True,i_AD,i_BC,False,Sure different,1,275.0,3223.0,8.078067881815437,2022-06-04 17:49:50
381,Main,4,0,14,Typographer,True,i_AD,i_AB,True,Sure same,1,350.0,3903.0,8.269500767180615,2022-06-04 17:49:50
382,Main,4,0,15,Typographer,True,u_AD,u_AD,True,Sure same,1,425.0,3580.0,8.183118079394745,2022-06-04 17:49:50
383,Main,4,0,16,Typographer,True,u_AA,u_DD,False,Sure different,1,500.0,3040.0,8.019612794400267,2022-06-04 17:49:50
384,Main,4,0,17,Typographer,True,d_AD,d_AD,True,Sure same,1,575.0,3927.0,8.27563105457801,2022-06-04 17:49:50
385,Main,4,0,18,Typographer,True,i_AA,i_AA,True,Sure same,1,650.0,3381.0,8.125926802707886,2022-06-04 17:49:50
386,Main,4,1,1,Typographer,True,h_AA,h_DD,False,Sure different,1,150.0,5518.0,8.615770754777232,2022-06-04 17:49:50
387,Main,4,1,2,Typographer,True,h_AB,h_AD,True,Probably same,1,150.0,3280.0,8.09559870137819,2022-06-04 17:49:50
388,Main,4,1,3,Typographer,True,q_BD,q_AD,False,Probably different,1,150.0,3918.0,8.273336598504486,2022-06-04 17:49:50
389,Main,4,1,4,Typographer,True,a_DD,a_AA,False,Sure different,1,150.0,2687.0,7.8961806086154915,2022-06-04 17:49:50
390,Main,4,1,5,Typographer,True,b_AD,b_AB,True,Sure same,1,150.0,3619.0,8.193953023563742,2022-06-04 17:49:50
391,Main,4,1,6,Typographer,True,p_AD,p_BC,False,Sure different,1,150.0,2677.0,7.892452043520352,2022-06-04 17:49:50
392,Main,4,1,7,Typographer,True,z_BD,z_AD,False,Sure different,1,150.0,2602.0,7.86403565907245,2022-06-04 17:49:50
393,Main,4,1,8,Typographer,True,c_AD,c_BD,False,Probably same,0,150.0,3137.0,8.051022208190679,2022-06-04 17:49:50
394,Main,4,1,9,Typographer,True,j_AA,j_DD,False,Sure different,1,150.0,2676.0,7.892078421248119,2022-06-04 17:49:50
395,Main,4,1,10,Typographer,True,t_AB,t_AD,True,Probably same,1,150.0,3494.0,8.158802490694002,2022-06-04 17:49:50
396,Main,4,1,11,Typographer,True,z_AB,z_AD,True,Probably same,1,150.0,5199.0,8.556221578383715,2022-06-04 17:49:50
397,Main,4,1,12,Typographer,True,r_AA,r_AA,True,Probably same,1,150.0,3477.0,8.153925132007862,2022-06-04 17:49:50
398,Main,4,1,13,Typographer,True,e_AD,e_BC,False,Sure same,0,150.0,3731.0,8.224431573221159,2022-06-04 17:49:50
399,Main,4,1,14,Typographer,True,z_AD,z_BC,False,Sure different,1,150.0,2892.0,7.969703583278656,2022-06-04 17:49:50
400,Main,4,1,15,Typographer,True,a_AA,a_AA,True,Probably same,1,150.0,3058.0,8.025516386489008,2022-06-04 17:49:50
401,Main,4,1,16,Typographer,True,z_AD,z_AD,True,Probably same,1,150.0,3746.0,8.228443883004033,2022-06-04 17:49:50
402,Main,4,1,17,Typographer,True,b_AA,b_AA,True,Sure same,1,150.0,3563.0,8.178358165605836,2022-06-04 17:49:50
403,Main,4,1,18,Typographer,True,e_BD,e_AD,False,Probably same,0,150.0,3263.0,8.09040229659332,2022-06-04 17:49:50
404,Main,4,1,19,Typographer,True,t_BC,t_AD,False,Probably same,0,150.0,3207.0,8.073091199693154,2022-06-04 17:49:50
405,Main,4,1,20,Typographer,True,c_AD,c_AB,True,Probably different,0,150.0,3561.0,8.177796683277778,2022-06-04 17:49:50
406,Main,4,1,21,Typographer,True,q_AA,q_DD,False,Sure different,1,150.0,2655.0,7.884199933676039,2022-06-04 17:49:50
407,Main,4,1,22,Typographer,True,c_DD,c_AA,False,Sure different,1,150.0,2672.0,7.890582534656536,2022-06-04 17:49:50
408,Main,4,1,23,Typographer,True,n_AB,n_AD,True,Probably same,1,150.0,2987.0,8.00202481821611,2022-06-04 17:49:50
409,Main,4,1,24,Typographer,True,a_AD,a_BC,False,Probably same,0,150.0,3912.0,8.271804031154709,2022-06-04 17:49:50
410,Main,4,1,25,Typographer,True,r_AA,r_DD,False,Sure different,1,150.0,2615.0,7.869019376499023,2022-06-04 17:49:50
411,Main,4,1,26,Typographer,True,b_BC,b_AD,False,Sure different,1,150.0,2553.0,7.845024417241484,2022-06-04 17:49:50
412,Main,4,1,27,Typographer,True,b_AD,b_AD,True,Probably same,1,150.0,3279.0,8.095293776844649,2022-06-04 17:49:50
413,Main,4,1,28,Typographer,True,r_BC,r_AD,False,Sure same,0,150.0,2970.0,7.996317231796746,2022-06-04 17:49:50
414,Main,4,1,29,Typographer,True,p_AB,p_AD,True,Probably same,1,150.0,2728.0,7.911324018963353,2022-06-04 17:49:50
415,Main,4,1,30,Typographer,True,r_AB,r_AD,True,Probably same,1,150.0,2868.0,7.961370201719511,2022-06-04 17:49:50
416,Main,4,1,31,Typographer,True,n_DD,n_AA,False,Sure different,1,150.0,2646.0,7.880804344674901,2022-06-04 17:49:50
417,Main,4,1,32,Typographer,True,h_AA,h_AA,True,Sure same,1,150.0,2971.0,7.9966538754626075,2022-06-04 17:49:50
418,Main,4,1,33,Typographer,True,p_DD,p_AA,False,Sure different,1,150.0,2561.0,7.848153086199526,2022-06-04 17:49:50
419,Main,4,1,34,Typographer,True,n_AD,n_BD,False,Sure different,1,150.0,2829.0,7.947678571301568,2022-06-04 17:49:50
420,Main,4,1,35,Typographer,True,j_AD,j_AD,True,Probably same,1,150.0,3596.0,8.18757739559151,2022-06-04 17:49:50
421,Main,4,1,36,Typographer,True,c_BC,c_AD,False,Sure different,1,150.0,3073.0,8.030409562130485,2022-06-04 17:49:50
422,Main,4,1,37,Typographer,True,n_BC,n_AD,False,Probably same,0,150.0,2924.0,7.980707820869669,2022-06-04 17:49:50
423,Main,4,1,38,Typographer,True,z_AA,z_DD,False,Sure different,1,150.0,2773.0,7.927685045615778,2022-06-04 17:49:50
424,Main,4,1,39,Typographer,True,n_AD,n_AD,True,Sure same,1,150.0,3706.0,8.217708406845306,2022-06-04 17:49:50
425,Main,4,1,40,Typographer,True,a_AD,a_AD,True,Sure same,1,150.0,2719.0,7.908019444632471,2022-06-04 17:49:50
426,Main,4,1,41,Typographer,True,p_AD,p_BD,False,Probably different,1,150.0,3104.0,8.04044688130311,2022-06-04 17:49:50
427,Main,4,1,42,Typographer,True,h_AD,h_AD,True,Probably different,0,150.0,3098.0,8.038512020976814,2022-06-04 17:49:50
428,Main,4,1,43,Typographer,True,q_AD,q_AD,True,Probably different,0,150.0,3871.0,8.261268150577648,2022-06-04 17:49:50
429,Main,4,1,44,Typographer,True,h_AD,h_BC,False,Sure different,1,150.0,2830.0,7.948031990637284,2022-06-04 17:49:50
430,Main,4,1,45,Typographer,True,p_AD,p_AD,True,Probably same,1,150.0,2979.0,7.999342952713282,2022-06-04 17:49:50
431,Main,4,1,46,Typographer,True,z_AA,z_AA,True,Sure same,1,150.0,3999.0,8.293799608846818,2022-06-04 17:49:50
432,Main,4,1,47,Typographer,True,r_AD,r_BD,False,Sure different,1,150.0,2907.0,7.9748769005588755,2022-06-04 17:49:50
433,Main,4,1,48,Typographer,True,b_AA,b_DD,False,Sure different,1,150.0,2821.0,7.944846711001996,2022-06-04 17:49:50
434,Main,4,1,49,Typographer,True,n_AA,n_AA,True,Probably same,1,150.0,3011.0,8.010027528481734,2022-06-04 17:49:50
435,Main,4,1,50,Typographer,True,c_AD,c_AD,True,Probably same,1,150.0,3159.0,8.058010800802085,2022-06-04 17:49:50
436,Main,4,1,51,Typographer,True,h_AD,h_BD,False,Sure different,1,150.0,2554.0,7.845416036592485,2022-06-04 17:49:50
437,Main,4,1,52,Typographer,True,t_AA,t_DD,False,Sure different,1,150.0,2598.0,7.862497197230545,2022-06-04 17:49:50
438,Main,4,1,53,Typographer,True,p_AA,p_AA,True,Probably same,1,150.0,2934.0,7.984121958702927,2022-06-04 17:49:50
439,Main,4,1,54,Typographer,True,a_AB,a_AD,True,Probably same,1,150.0,4851.0,8.486940148245216,2022-06-04 17:49:50
440,Main,4,1,55,Typographer,True,j_AD,j_BC,False,Sure different,1,150.0,2512.0,7.828834527588089,2022-06-04 17:49:50
441,Main,4,1,56,Typographer,True,e_AD,e_AD,True,Sure same,1,150.0,3352.0,8.117312461601975,2022-06-04 17:49:50
442,Main,4,1,57,Typographer,True,a_AD,a_BD,False,Probably different,1,150.0,3294.0,8.099857910737585,2022-06-04 17:49:50
443,Main,4,1,58,Typographer,True,q_AA,q_AA,True,Probably different,0,150.0,2994.0,8.004365564979574,2022-06-04 17:49:50
444,Main,4,1,59,Typographer,True,b_BD,b_AD,False,Sure different,1,150.0,2474.0,7.813591552952433,2022-06-04 17:49:50
445,Main,4,1,60,Typographer,True,j_AD,j_BD,False,Probably different,1,150.0,3089.0,8.035602692918582,2022-06-04 17:49:50
446,Main,4,1,61,Typographer,True,j_AA,j_AA,True,Probably same,1,150.0,3413.0,8.135346948906706,2022-06-04 17:49:50
447,Main,4,1,62,Typographer,True,c_AA,c_AA,True,Probably same,1,150.0,2639.0,7.878155336503324,2022-06-04 17:49:50
448,Main,4,1,63,Typographer,True,e_DD,e_AA,False,Sure different,1,150.0,2427.0,7.794411205726601,2022-06-04 17:49:50
449,Main,4,1,64,Typographer,True,e_AD,e_AB,True,Sure same,1,150.0,2861.0,7.95892649305011,2022-06-04 17:49:50
450,Main,4,1,65,Typographer,True,t_AA,t_AA,True,Probably different,0,150.0,2980.0,7.9996785794994505,2022-06-04 17:49:50
451,Main,4,1,66,Typographer,True,j_AB,j_AD,True,Probably same,1,150.0,4203.0,8.343553835005117,2022-06-04 17:49:50
452,Main,4,1,67,Typographer,True,q_AD,q_BC,False,Sure same,0,150.0,3034.0,8.017637159908478,2022-06-04 17:49:50
453,Main,4,1,68,Typographer,True,q_AD,q_AB,True,Probably same,1,150.0,3003.0,8.00736706798333,2022-06-04 17:49:50
454,Main,4,1,69,Typographer,True,t_AD,t_AD,True,Probably same,1,150.0,3445.0,8.144679183447758,2022-06-04 17:49:50
455,Main,4,1,70,Typographer,True,r_AD,r_AD,True,Sure same,1,150.0,2552.0,7.844632644464681,2022-06-04 17:49:50
456,Main,4,1,71,Typographer,True,t_BD,t_AD,False,Sure different,1,150.0,2758.0,7.922261058353247,2022-06-04 17:49:50
457,Main,4,1,72,Typographer,True,e_AA,e_AA,True,Sure same,1,150.0,2837.0,7.950502434808851,2022-06-04 17:49:50
458,Main,4,0,19,Typographer,True,u_BD,u_AD,False,Sure different,1,725.0,3295.0,8.100161446936607,2022-06-04 17:49:50
459,Main,4,0,20,Typographer,True,i_AD,i_AD,True,Sure same,1,800.0,3855.0,8.25712628599743,2022-06-04 17:49:50
460,Main,5,0,1,Graphic designer,True,d_AD,d_BC,False,Probably different,1,800.0,13159.0,9.48486121415014,2022-06-04 17:01:01
461,Main,5,0,2,Graphic designer,True,u_DD,u_AA,False,Sure different,1,800.0,5476.0,8.60813018640834,2022-06-04 17:01:01
462,Main,5,0,3,Graphic designer,True,d_DD,d_AA,False,Sure different,1,800.0,4869.0,8.4906438561827,2022-06-04 17:01:01
463,Main,5,0,4,Graphic designer,True,d_AA,d_AA,True,Probably same,1,725.0,4581.0,8.429672593886743,2022-06-04 17:01:01
464,Main,5,0,5,Graphic designer,True,i_DD,i_AA,False,Sure different,1,650.0,3651.0,8.202756381655638,2022-06-04 17:01:01
465,Main,5,0,6,Graphic designer,True,d_AD,d_BC,False,Probably different,1,575.0,4866.0,8.490027523343468,2022-06-04 17:01:01
466,Main,5,0,7,Graphic designer,True,i_BD,i_AD,False,Sure different,1,500.0,5438.0,8.601166625192416,2022-06-04 17:01:01
467,Main,5,0,8,Graphic designer,True,d_AD,d_BD,False,Sure different,1,425.0,4097.0,8.318010277546872,2022-06-04 17:01:01
468,Main,5,0,9,Graphic designer,True,u_AD,u_AB,True,Probably different,0,350.0,4833.0,8.483222671845084,2022-06-04 17:01:01
469,Main,5,0,10,Graphic designer,True,d_AB,d_AD,True,Probably same,1,275.0,4317.0,8.370315995555478,2022-06-04 17:01:01
470,Main,5,0,11,Graphic designer,True,u_BC,u_AD,False,Sure different,1,200.0,3066.0,8.028129059431759,2022-06-04 17:01:01
471,Main,5,0,12,Graphic designer,True,u_AA,u_AA,True,Probably same,1,200.0,3467.0,8.151044945685024,2022-06-04 17:01:01
472,Main,5,0,13,Graphic designer,True,i_AD,i_BC,False,Sure different,1,275.0,3500.0,8.160518247477505,2022-06-04 17:01:01
473,Main,5,0,14,Graphic designer,True,i_AD,i_AB,True,Sure same,1,350.0,4000.0,8.294049640102028,2022-06-04 17:01:01
474,Main,5,0,15,Graphic designer,True,u_AD,u_AD,True,Sure same,1,425.0,3750.0,8.229511118964457,2022-06-04 17:01:01
475,Main,5,0,16,Graphic designer,True,u_AA,u_DD,False,Sure different,1,500.0,3583.0,8.183955717304954,2022-06-04 17:01:01
476,Main,5,0,17,Graphic designer,True,d_AD,d_AD,True,Probably different,0,575.0,4749.0,8.465689348549121,2022-06-04 17:01:01
477,Main,5,0,18,Graphic designer,True,i_AA,i_AA,True,Probably same,1,650.0,4053.0,8.307212626628308,2022-06-04 17:01:01
478,Main,5,1,1,Graphic designer,True,a_DD,a_AA,False,Sure different,1,266.7,5312.0,8.57772369115627,2022-06-04 17:01:01
479,Main,5,1,2,Graphic designer,True,h_AD,h_AD,True,Probably same,1,266.7,3464.0,8.150179269682326,2022-06-04 17:01:01
480,Main,5,1,3,Graphic designer,True,n_AD,n_BC,False,Sure different,1,266.7,3085.0,8.034306936339489,2022-06-04 17:01:01
481,Main,5,1,4,Graphic designer,True,h_BC,h_AD,False,Probably same,0,266.7,4266.0,8.358431899031295,2022-06-04 17:01:01
482,Main,5,1,5,Graphic designer,True,j_AB,j_AD,True,Probably different,0,266.7,4284.0,8.36264243156764,2022-06-04 17:01:01
483,Main,5,1,6,Graphic designer,True,j_AA,j_AA,True,Sure same,1,266.7,4137.0,8.327726166461412,2022-06-04 17:01:01
484,Main,5,1,7,Graphic designer,True,a_AD,a_BD,False,Sure same,0,266.7,3234.0,8.081475040137052,2022-06-04 17:01:01
485,Main,5,1,8,Graphic designer,True,q_AD,q_AD,True,Probably different,0,266.7,4363.0,8.38091517312361,2022-06-04 17:01:01
486,Main,5,1,9,Graphic designer,True,b_AD,b_BD,False,Sure different,1,266.7,3535.0,8.170468578330674,2022-06-04 17:01:01
487,Main,5,1,10,Graphic designer,True,q_AA,q_AA,True,Sure different,0,266.7,3548.0,8.17413934342947,2022-06-04 17:01:01
488,Main,5,1,11,Graphic designer,True,n_AA,n_AA,True,Probably same,1,266.7,3568.0,8.1797604936999,2022-06-04 17:01:01
489,Main,5,1,12,Graphic designer,True,c_AA,c_AA,True,Probably same,1,266.7,3083.0,8.03365842788615,2022-06-04 17:01:01
490,Main,5,1,13,Graphic designer,True,z_AD,z_AD,True,Probably same,1,266.7,3667.0,8.207129168071326,2022-06-04 17:01:01
491,Main,5,1,14,Graphic designer,True,t_AA,t_AA,True,Sure different,0,266.7,3333.0,8.11162807830774,2022-06-04 17:01:01
492,Main,5,1,15,Graphic designer,True,c_BC,c_AD,False,Sure different,1,266.7,3266.0,8.09132127353041,2022-06-04 17:01:01
493,Main,5,1,16,Graphic designer,True,p_BC,p_AD,False,Sure different,1,266.7,2951.0,7.989899374942939,2022-06-04 17:01:01
494,Main,5,1,17,Graphic designer,True,r_BC,r_AD,False,Probably same,0,266.7,3416.0,8.13622555490846,2022-06-04 17:01:01
495,Main,5,1,18,Graphic designer,True,n_AB,n_AD,True,Probably same,1,266.7,4219.0,8.347353412124338,2022-06-04 17:01:01
496,Main,5,1,19,Graphic designer,True,j_AA,j_DD,False,Sure different,1,266.7,3199.0,8.070593539949519,2022-06-04 17:01:01
497,Main,5,1,20,Graphic designer,True,h_BD,h_AD,False,Sure different,1,266.7,3085.0,8.034306936339489,2022-06-04 17:01:01
498,Main,5,1,21,Graphic designer,True,q_DD,q_AA,False,Sure different,1,266.7,3132.0,8.049427057110695,2022-06-04 17:01:01
499,Main,5,1,22,Graphic designer,True,e_AD,e_AD,True,Probably same,1,266.7,3200.0,8.070906088787819,2022-06-04 17:01:01
500,Main,5,1,23,Graphic designer,True,t_AA,t_DD,False,Sure different,1,266.7,3050.0,8.022896869601457,2022-06-04 17:01:01
501,Main,5,1,24,Graphic designer,True,h_AA,h_DD,False,Sure different,1,266.7,2918.0,7.978653729082731,2022-06-04 17:01:01
502,Main,5,1,25,Graphic designer,True,e_AA,e_DD,False,Probably same,0,266.7,4317.0,8.370315995555478,2022-06-04 17:01:01
503,Main,5,1,26,Graphic designer,True,t_AD,t_BD,False,Sure different,1,266.7,2899.0,7.972121128921655,2022-06-04 17:01:01
504,Main,5,1,27,Graphic designer,True,a_AD,a_BC,False,Probably same,0,266.7,3901.0,8.268988209506656,2022-06-04 17:01:01
505,Main,5,1,28,Graphic designer,True,t_AB,t_AD,True,Probably same,1,266.7,3533.0,8.169902647359145,2022-06-04 17:01:01
506,Main,5,1,29,Graphic designer,True,r_AD,r_AD,True,Sure same,1,266.7,4450.0,8.400659375160286,2022-06-04 17:01:01
507,Main,5,1,30,Graphic designer,True,a_AA,a_AA,True,Sure same,1,266.7,4350.0,8.37793112408273,2022-06-04 17:01:01
508,Main,5,1,31,Graphic designer,True,j_AD,j_BC,False,Sure different,1,266.7,4139.0,8.328209491748732,2022-06-04 17:01:01
509,Main,5,1,32,Graphic designer,True,e_AD,e_BC,False,Sure different,1,266.7,2878.0,7.964850887447313,2022-06-04 17:01:01
510,Main,5,1,33,Graphic designer,True,r_BD,r_AD,False,Probably same,0,266.7,3701.0,8.216358332386156,2022-06-04 17:01:01
511,Main,5,1,34,Graphic designer,True,b_AD,b_BC,False,Sure different,1,266.7,3016.0,8.011686729127847,2022-06-04 17:01:01
512,Main,5,1,35,Graphic designer,True,p_AA,p_AA,True,Sure different,0,266.7,3135.0,8.050384453067021,2022-06-04 17:01:01
513,Main,5,1,36,Graphic designer,True,p_DD,p_AA,False,Sure different,1,266.7,2848.0,7.954372272531867,2022-06-04 17:01:01
514,Main,5,1,37,Graphic designer,True,n_AD,n_AD,True,Sure different,0,266.7,3517.0,8.165363632473982,2022-06-04 17:01:01
515,Main,5,1,38,Graphic designer,True,e_AA,e_AA,True,Probably same,1,266.7,3284.0,8.096817470572319,2022-06-04 17:01:01
516,Main,5,1,39,Graphic designer,True,a_AB,a_AD,True,Sure different,0,266.7,4018.0,8.29853954537488,2022-06-04 17:01:01
517,Main,5,1,40,Graphic designer,True,c_AD,c_AD,True,Probably same,1,266.7,3583.0,8.183955717304954,2022-06-04 17:01:01
518,Main,5,1,41,Graphic designer,True,h_AB,h_AD,True,Probably different,0,266.7,3883.0,8.264363329731667,2022-06-04 17:01:01
519,Main,5,1,42,Graphic designer,True,r_AA,r_AA,True,Probably same,1,266.7,3602.0,8.189244525735901,2022-06-04 17:01:01
520,Main,5,1,43,Graphic designer,True,j_AD,j_BD,False,Sure different,1,266.7,3049.0,8.022568946988255,2022-06-04 17:01:01
521,Main,5,1,44,Graphic designer,True,p_AD,p_AB,True,Probably different,0,266.7,3484.0,8.155936337972394,2022-06-04 17:01:01
522,Main,5,1,45,Graphic designer,True,c_AD,c_BD,False,Probably same,0,266.7,3366.0,8.121480374750751,2022-06-04 17:01:01
523,Main,5,1,46,Graphic designer,True,b_AD,b_AD,True,Probably same,1,266.7,2950.0,7.989560449333865,2022-06-04 17:01:01
524,Main,5,1,47,Graphic designer,True,b_AB,b_AD,True,Probably same,1,266.7,2984.0,8.001019961323651,2022-06-04 17:01:01
525,Main,5,1,48,Graphic designer,True,c_DD,c_AA,False,Sure different,1,266.7,3200.0,8.070906088787819,2022-06-04 17:01:01
526,Main,5,1,49,Graphic designer,True,b_AA,b_AA,True,Probably same,1,266.7,3267.0,8.09162741160107,2022-06-04 17:01:01
527,Main,5,1,50,Graphic designer,True,e_AD,e_BD,False,Probably different,1,266.7,3633.0,8.197814032221203,2022-06-04 17:01:01
528,Main,5,1,51,Graphic designer,True,q_BC,q_AD,False,Probably different,1,266.7,3018.0,8.012349639327795,2022-06-04 17:01:01
529,Main,5,1,52,Graphic designer,True,z_BC,z_AD,False,Sure different,1,266.7,2832.0,7.94873845481361,2022-06-04 17:01:01
530,Main,5,1,53,Graphic designer,True,b_DD,b_AA,False,Sure different,1,266.7,2934.0,7.984121958702927,2022-06-04 17:01:01
531,Main,5,1,54,Graphic designer,True,z_BD,z_AD,False,Sure different,1,266.7,2818.0,7.943782692458625,2022-06-04 17:01:01
532,Main,5,1,55,Graphic designer,True,p_AD,p_AD,True,Probably same,1,266.7,3183.0,8.065579427282092,2022-06-04 17:01:01
533,Main,5,1,56,Graphic designer,True,r_AD,r_AB,True,Probably same,1,266.7,3767.0,8.23403420769204,2022-06-04 17:01:01
534,Main,5,1,57,Graphic designer,True,p_AD,p_BD,False,Sure different,1,266.7,3100.0,8.039157390473237,2022-06-04 17:01:01
535,Main,5,1,58,Graphic designer,True,z_AA,z_DD,False,Sure different,1,266.7,3116.0,8.044305406990638,2022-06-04 17:01:01
536,Main,5,1,59,Graphic designer,True,z_AA,z_AA,True,Probably same,1,266.7,3434.0,8.141481041457421,2022-06-04 17:01:01
537,Main,5,1,60,Graphic designer,True,n_AA,n_DD,False,Sure different,1,266.7,3200.0,8.070906088787819,2022-06-04 17:01:01
538,Main,5,1,61,Graphic designer,True,a_AD,a_AD,True,Probably same,1,266.7,2968.0,7.995643604287271,2022-06-04 17:01:01
539,Main,5,1,62,Graphic designer,True,n_AD,n_BD,False,Sure different,1,266.7,3333.0,8.11162807830774,2022-06-04 17:01:01
540,Main,5,1,63,Graphic designer,True,t_AD,t_AD,True,Probably different,0,266.7,2933.0,7.983781068977451,2022-06-04 17:01:01
541,Main,5,1,64,Graphic designer,True,j_AD,j_AD,True,Probably different,0,266.7,2951.0,7.989899374942939,2022-06-04 17:01:01
542,Main,5,1,65,Graphic designer,True,e_AB,e_AD,True,Probably different,0,266.7,2934.0,7.984121958702927,2022-06-04 17:01:01
543,Main,5,1,66,Graphic designer,True,h_AA,h_AA,True,Probably same,1,266.7,4184.0,8.339023005744759,2022-06-04 17:01:01
544,Main,5,1,67,Graphic designer,True,q_BD,q_AD,False,Probably same,0,266.7,3016.0,8.011686729127847,2022-06-04 17:01:01
545,Main,5,1,68,Graphic designer,True,z_AB,z_AD,True,Probably same,1,266.7,2867.0,7.96102146588337,2022-06-04 17:01:01
546,Main,5,1,69,Graphic designer,True,t_BC,t_AD,False,Probably same,0,266.7,2782.0,7.930925372483388,2022-06-04 17:01:01
547,Main,5,1,70,Graphic designer,True,c_AB,c_AD,True,Probably same,1,266.7,2861.0,7.95892649305011,2022-06-04 17:01:01
548,Main,5,1,71,Graphic designer,True,q_AB,q_AD,True,Probably same,1,266.7,2725.0,7.9102237070973445,2022-06-04 17:01:01
549,Main,5,1,72,Graphic designer,True,r_AA,r_DD,False,Sure different,1,266.7,2881.0,7.9658927350845286,2022-06-04 17:01:01
550,Main,5,0,19,Graphic designer,True,u_AD,u_BD,False,Sure different,1,725.0,3883.0,8.264363329731667,2022-06-04 17:01:01
551,Main,5,0,20,Graphic designer,True,i_AD,i_AD,True,Probably different,0,800.0,5234.0,8.562931083090092,2022-06-04 17:01:01
552,Main,6,0,1,Non-designer,False,d_BC,d_AD,False,Sure different,1,800.0,7856.0,8.969032850034301,2022-06-04 16:54:42
553,Main,6,0,2,Non-designer,False,u_DD,u_AA,False,Sure different,1,800.0,4488.0,8.409162447202533,2022-06-04 16:54:42
554,Main,6,0,3,Non-designer,False,d_DD,d_AA,False,Sure same,0,800.0,4893.0,8.495560891289124,2022-06-04 16:54:42
555,Main,6,0,4,Non-designer,False,d_AA,d_AA,True,Sure same,1,725.0,4157.0,8.332548939252638,2022-06-04 16:54:42
556,Main,6,0,5,Non-designer,False,i_DD,i_AA,False,Sure different,1,650.0,4335.0,8.374476889214643,2022-06-04 16:54:42
557,Main,6,0,6,Non-designer,False,d_BC,d_AD,False,Sure same,0,575.0,4309.0,8.368461137615839,2022-06-04 16:54:42
558,Main,6,0,7,Non-designer,False,i_AD,i_BD,False,Sure same,0,500.0,4616.0,8.437283808187935,2022-06-04 16:54:42
559,Main,6,0,8,Non-designer,False,d_BD,d_AD,False,Sure different,1,425.0,3394.0,8.129764445794171,2022-06-04 16:54:42
560,Main,6,0,9,Non-designer,False,u_AD,u_AB,True,Sure different,0,350.0,3732.0,8.224699561967235,2022-06-04 16:54:42
561,Main,6,0,10,Non-designer,False,d_AB,d_AD,True,Sure different,0,275.0,3451.0,8.146419323098003,2022-06-04 16:54:42
562,Main,6,0,11,Non-designer,False,u_AD,u_BC,False,Sure same,0,200.0,3838.0,8.252706676567644,2022-06-04 16:54:42
563,Main,6,0,12,Non-designer,False,u_AA,u_AA,True,Sure different,0,200.0,3100.0,8.039157390473237,2022-06-04 16:54:42
564,Main,6,0,13,Non-designer,False,i_BC,i_AD,False,Sure same,0,275.0,3323.0,8.108623268354595,2022-06-04 16:54:42
565,Main,6,0,14,Non-designer,False,i_AD,i_AB,True,Sure different,0,350.0,3489.0,8.157370441186774,2022-06-04 16:54:42
566,Main,6,0,15,Non-designer,False,u_AD,u_AD,True,Sure same,1,425.0,3964.0,8.285008895449879,2022-06-04 16:54:42
567,Main,6,0,16,Non-designer,False,u_AA,u_DD,False,Sure different,1,500.0,3749.0,8.229244416735913,2022-06-04 16:54:42
568,Main,6,0,17,Non-designer,False,d_AD,d_AD,True,Sure same,1,575.0,4490.0,8.4096079807363,2022-06-04 16:54:42
569,Main,6,0,18,Non-designer,False,i_AA,i_AA,True,Sure different,0,650.0,3674.0,8.20903626577507,2022-06-04 16:54:42
570,Main,6,1,1,Non-designer,False,j_BC,j_AD,False,Sure same,0,577.8,7688.0,8.947415950650129,2022-06-04 16:54:42
571,Main,6,1,2,Non-designer,False,p_AA,p_DD,False,Sure different,1,577.8,3467.0,8.151044945685024,2022-06-04 16:54:42
572,Main,6,1,3,Non-designer,False,b_AD,b_AD,True,Sure same,1,577.8,3615.0,8.192847134592865,2022-06-04 16:54:42
573,Main,6,1,4,Non-designer,False,a_DD,a_AA,False,Sure different,1,577.8,3325.0,8.109224953089955,2022-06-04 16:54:42
574,Main,6,1,5,Non-designer,False,c_AA,c_DD,False,Sure different,1,577.8,3490.0,8.157657015196472,2022-06-04 16:54:42
575,Main,6,1,6,Non-designer,False,q_BD,q_AD,False,Sure same,0,577.8,3501.0,8.160803920954665,2022-06-04 16:54:42
576,Main,6,1,7,Non-designer,False,e_AD,e_AD,True,Sure same,1,577.8,3245.0,8.08487062913819,2022-06-04 16:54:42
577,Main,6,1,8,Non-designer,False,e_AD,e_BC,False,Sure same,0,577.8,3375.0,8.12415060330663,2022-06-04 16:54:42
578,Main,6,1,9,Non-designer,False,n_AD,n_AB,True,Sure same,1,577.8,6168.0,8.727129915243166,2022-06-04 16:54:42
579,Main,6,1,10,Non-designer,False,e_AD,e_AB,True,Sure different,0,577.8,3559.0,8.177234885510194,2022-06-04 16:54:42
580,Main,6,1,11,Non-designer,False,t_AA,t_DD,False,Sure different,1,577.8,3664.0,8.20631072579402,2022-06-04 16:54:42
581,Main,6,1,12,Non-designer,False,p_AB,p_AD,True,Sure same,1,577.8,3658.0,8.204671828950811,2022-06-04 16:54:42
582,Main,6,1,13,Non-designer,False,a_AB,a_AD,True,Sure different,0,577.8,3840.0,8.253227645581772,2022-06-04 16:54:42
583,Main,6,1,14,Non-designer,False,z_BD,z_AD,False,Sure different,1,577.8,3850.0,8.25582842728183,2022-06-04 16:54:42
584,Main,6,1,15,Non-designer,False,e_DD,e_AA,False,Sure different,1,577.8,3321.0,8.108021221376747,2022-06-04 16:54:42
585,Main,6,1,16,Non-designer,False,e_AD,e_BD,False,Sure same,0,577.8,3655.0,8.203851372183879,2022-06-04 16:54:42
586,Main,6,1,17,Non-designer,False,b_AA,b_DD,False,Sure different,1,577.8,3817.0,8.247220052745229,2022-06-04 16:54:42
587,Main,6,1,18,Non-designer,False,q_AA,q_AA,True,Sure different,0,577.8,4408.0,8.391176350832751,2022-06-04 16:54:42
588,Main,6,1,19,Non-designer,False,a_AD,a_AD,True,Sure different,0,577.8,3639.0,8.19946419761216,2022-06-04 16:54:42
589,Main,6,1,20,Non-designer,False,a_BD,a_AD,False,Sure different,1,577.8,3444.0,8.144388865547622,2022-06-04 16:54:42
590,Main,6,1,21,Non-designer,False,j_AD,j_AD,True,Sure same,1,577.8,4185.0,8.339261982923576,2022-06-04 16:54:42
591,Main,6,1,22,Non-designer,False,p_AD,p_BD,False,Sure same,0,577.8,4752.0,8.466320861042481,2022-06-04 16:54:42
592,Main,6,1,23,Non-designer,False,c_AD,c_BC,False,Sure same,0,577.8,4091.0,8.316544717929398,2022-06-04 16:54:42
593,Main,6,1,24,Non-designer,False,r_AA,r_DD,False,Sure different,1,577.8,3512.0,8.163940954755008,2022-06-04 16:54:42
594,Main,6,1,25,Non-designer,False,j_AA,j_DD,False,Sure different,1,577.8,3477.0,8.153925132007862,2022-06-04 16:54:42
595,Main,6,1,26,Non-designer,False,c_AD,c_AB,True,Sure same,1,577.8,3636.0,8.19863945529737,2022-06-04 16:54:42
596,Main,6,1,27,Non-designer,False,r_AD,r_AD,True,Sure same,1,577.8,4196.0,8.341886969516187,2022-06-04 16:54:42
597,Main,6,1,28,Non-designer,False,n_AD,n_BD,False,Sure same,0,577.8,3379.0,8.12533508671429,2022-06-04 16:54:42
598,Main,6,1,29,Non-designer,False,j_AA,j_AA,True,Sure same,1,577.8,3398.0,8.130942302231878,2022-06-04 16:54:42
599,Main,6,1,30,Non-designer,False,r_BC,r_AD,False,Sure same,0,577.8,3580.0,8.183118079394745,2022-06-04 16:54:42
600,Main,6,1,31,Non-designer,False,t_AD,t_BC,False,Sure different,1,577.8,3308.0,8.104099056143582,2022-06-04 16:54:42
601,Main,6,1,32,Non-designer,False,a_AA,a_AA,True,Sure same,1,577.8,3382.0,8.126222529458525,2022-06-04 16:54:42
602,Main,6,1,33,Non-designer,False,z_AD,z_AD,True,Sure same,1,577.8,3304.0,8.102889134640868,2022-06-04 16:54:42
603,Main,6,1,34,Non-designer,False,h_AD,h_AB,True,Sure same,1,577.8,3351.0,8.11701408773731,2022-06-04 16:54:42
604,Main,6,1,35,Non-designer,False,z_AD,z_BC,False,Sure same,0,577.8,7865.0,8.970177815492379,2022-06-04 16:54:42
605,Main,6,1,36,Non-designer,False,c_AA,c_AA,True,Sure same,1,577.8,3266.0,8.09132127353041,2022-06-04 16:54:42
606,Main,6,1,37,Non-designer,False,z_AB,z_AD,True,Sure same,1,577.8,3348.0,8.116118431609365,2022-06-04 16:54:42
607,Main,6,1,38,Non-designer,False,t_AA,t_AA,True,Sure same,1,577.8,3117.0,8.044626279767337,2022-06-04 16:54:42
608,Main,6,1,39,Non-designer,False,h_DD,h_AA,False,Sure different,1,577.8,3257.0,8.088561805276234,2022-06-04 16:54:42
609,Main,6,1,40,Non-designer,False,z_DD,z_AA,False,Sure different,1,577.8,3045.0,8.021256180143997,2022-06-04 16:54:42
610,Main,6,1,41,Non-designer,False,j_AD,j_AB,True,Sure same,1,577.8,4434.0,8.397057390176256,2022-06-04 16:54:42
611,Main,6,1,42,Non-designer,False,r_AA,r_AA,True,Sure same,1,577.8,3662.0,8.205764725234456,2022-06-04 16:54:42
612,Main,6,1,43,Non-designer,False,z_AA,z_AA,True,Sure same,1,577.8,3337.0,8.112827478751374,2022-06-04 16:54:42
613,Main,6,1,44,Non-designer,False,a_BC,a_AD,False,Sure same,0,577.8,3837.0,8.252446090246952,2022-06-04 16:54:42
614,Main,6,1,45,Non-designer,False,c_AD,c_AD,True,Sure same,1,577.8,3255.0,8.08794755464267,2022-06-04 16:54:42
615,Main,6,1,46,Non-designer,False,q_AB,q_AD,True,Sure same,1,577.8,3302.0,8.102283624480073,2022-06-04 16:54:42
616,Main,6,1,47,Non-designer,False,b_AD,b_BC,False,Sure same,0,577.8,3389.0,8.128290171607052,2022-06-04 16:54:42
617,Main,6,1,48,Non-designer,False,p_AD,p_BC,False,Sure same,0,577.8,3256.0,8.08825472712243,2022-06-04 16:54:42
618,Main,6,1,49,Non-designer,False,c_BD,c_AD,False,Sure different,1,577.8,3275.0,8.094073148069352,2022-06-04 16:54:42
619,Main,6,1,50,Non-designer,False,h_BD,h_AD,False,Sure different,1,577.8,3290.0,8.098642843759418,2022-06-04 16:54:42
620,Main,6,1,51,Non-designer,False,b_AD,b_BD,False,Sure same,0,577.8,3408.0,8.133880887949207,2022-06-04 16:54:42
621,Main,6,1,52,Non-designer,False,t_AD,t_AD,True,Sure same,1,577.8,3247.0,8.085486772102845,2022-06-04 16:54:42
622,Main,6,1,53,Non-designer,False,n_AA,n_DD,False,Sure different,1,577.8,3275.0,8.094073148069352,2022-06-04 16:54:42
623,Main,6,1,54,Non-designer,False,h_AD,h_AD,True,Sure same,1,577.8,3315.0,8.106212902619962,2022-06-04 16:54:42
624,Main,6,1,55,Non-designer,False,j_BD,j_AD,False,Sure same,0,577.8,3686.0,8.212297138229768,2022-06-04 16:54:42
625,Main,6,1,56,Non-designer,False,q_AD,q_AD,True,Sure same,1,577.8,3508.0,8.162801353492073,2022-06-04 16:54:42
626,Main,6,1,57,Non-designer,False,e_AA,e_AA,True,Sure same,1,577.8,3261.0,8.089789175789319,2022-06-04 16:54:42
627,Main,6,1,58,Non-designer,False,t_AD,t_BD,False,Sure different,1,577.8,3363.0,8.12058871174027,2022-06-04 16:54:42
628,Main,6,1,59,Non-designer,False,q_AD,q_BC,False,Sure same,0,577.8,3319.0,8.107418811719974,2022-06-04 16:54:42
629,Main,6,1,60,Non-designer,False,n_AA,n_AA,True,Sure same,1,577.8,3180.0,8.064636475774222,2022-06-04 16:54:42
630,Main,6,1,61,Non-designer,False,h_AA,h_AA,True,Sure same,1,577.8,3010.0,8.009695357742922,2022-06-04 16:54:42
631,Main,6,1,62,Non-designer,False,h_BC,h_AD,False,Sure same,0,577.8,3429.0,8.14002395246292,2022-06-04 16:54:42
632,Main,6,1,63,Non-designer,False,n_BC,n_AD,False,Sure different,1,577.8,3615.0,8.192847134592865,2022-06-04 16:54:42
633,Main,6,1,64,Non-designer,False,b_AA,b_AA,True,Sure same,1,577.8,3612.0,8.192016914536875,2022-06-04 16:54:42
634,Main,6,1,65,Non-designer,False,r_BD,r_AD,False,Sure different,1,577.8,3630.0,8.196987927258897,2022-06-04 16:54:42
635,Main,6,1,66,Non-designer,False,q_AA,q_DD,False,Sure different,1,577.8,3534.0,8.170185652879642,2022-06-04 16:54:42
636,Main,6,1,67,Non-designer,False,r_AD,r_AB,True,Sure different,0,577.8,3348.0,8.116118431609365,2022-06-04 16:54:42
637,Main,6,1,68,Non-designer,False,n_AD,n_AD,True,Sure same,1,577.8,3323.0,8.108623268354595,2022-06-04 16:54:42
638,Main,6,1,69,Non-designer,False,b_AB,b_AD,True,Sure same,1,577.8,3549.0,8.174421152646497,2022-06-04 16:54:42
639,Main,6,1,70,Non-designer,False,t_AB,t_AD,True,Sure same,1,577.8,3699.0,8.215817791832453,2022-06-04 16:54:42
640,Main,6,1,71,Non-designer,False,p_AA,p_AA,True,Sure same,1,577.8,3321.0,8.108021221376747,2022-06-04 16:54:42
641,Main,6,1,72,Non-designer,False,p_AD,p_AD,True,Sure same,1,577.8,3709.0,8.21851757748959,2022-06-04 16:54:42
642,Main,6,0,19,Non-designer,False,u_BD,u_AD,False,Sure same,0,725.0,5183.0,8.553139318189707,2022-06-04 16:54:42
643,Main,6,0,20,Non-designer,False,i_AD,i_AD,True,Sure same,1,800.0,4539.0,8.420462002456466,2022-06-04 16:54:42
644,Main,7,0,1,Non-designer,False,d_AD,d_BC,False,Sure same,0,800.0,6863.0,8.833899942908635,2022-06-04 16:35:07
645,Main,7,0,2,Non-designer,False,u_AA,u_DD,False,Sure different,1,800.0,4483.0,8.40804774415544,2022-06-04 16:35:07
646,Main,7,0,3,Non-designer,False,d_DD,d_AA,False,Sure different,1,800.0,4015.0,8.297792626380861,2022-06-04 16:35:07
647,Main,7,0,4,Non-designer,False,d_AA,d_AA,True,Sure same,1,725.0,3605.0,8.190077049719049,2022-06-04 16:35:07
648,Main,7,0,5,Non-designer,False,i_DD,i_AA,False,Sure different,1,650.0,3612.0,8.192016914536875,2022-06-04 16:35:07
649,Main,7,0,6,Non-designer,False,d_AD,d_BC,False,Sure same,0,575.0,3294.0,8.099857910737585,2022-06-04 16:35:07
650,Main,7,0,7,Non-designer,False,i_BD,i_AD,False,Sure different,1,500.0,4245.0,8.353497098745448,2022-06-04 16:35:07
651,Main,7,0,8,Non-designer,False,d_AD,d_BD,False,Probably same,0,425.0,3857.0,8.257644958208228,2022-06-04 16:35:07
652,Main,7,0,9,Non-designer,False,u_AB,u_AD,True,Sure same,1,350.0,3337.0,8.112827478751374,2022-06-04 16:35:07
653,Main,7,0,10,Non-designer,False,d_AD,d_AB,True,Sure same,1,275.0,3054.0,8.024207485778577,2022-06-04 16:35:07
654,Main,7,0,11,Non-designer,False,u_BC,u_AD,False,Sure same,0,200.0,2820.0,7.944492163932159,2022-06-04 16:35:07
655,Main,7,0,12,Non-designer,False,u_AA,u_AA,True,Sure same,1,200.0,2734.0,7.913521017283895,2022-06-04 16:35:07
656,Main,7,0,13,Non-designer,False,i_AD,i_BC,False,Probably same,0,275.0,3605.0,8.190077049719049,2022-06-04 16:35:07
657,Main,7,0,14,Non-designer,False,i_AB,i_AD,True,Probably same,1,350.0,3477.0,8.153925132007862,2022-06-04 16:35:07
658,Main,7,0,15,Non-designer,False,u_AD,u_AD,True,Sure same,1,425.0,3389.0,8.128290171607052,2022-06-04 16:35:07
659,Main,7,0,16,Non-designer,False,u_AA,u_DD,False,Sure different,1,500.0,3330.0,8.110727582974489,2022-06-04 16:35:07
660,Main,7,0,17,Non-designer,False,d_AD,d_AD,True,Sure same,1,575.0,3387.0,8.127699852817772,2022-06-04 16:35:07
661,Main,7,0,18,Non-designer,False,i_AA,i_AA,True,Sure same,1,650.0,3453.0,8.146998697389993,2022-06-04 16:35:07
662,Main,7,1,1,Non-designer,False,t_AA,t_AA,True,Sure different,0,305.6,6014.0,8.701845363548474,2022-06-04 16:35:07
663,Main,7,1,2,Non-designer,False,z_AB,z_AD,True,Sure same,1,305.6,3164.0,8.059592328887545,2022-06-04 16:35:07
664,Main,7,1,3,Non-designer,False,a_AD,a_AB,True,Sure different,0,305.6,3212.0,8.074649075066652,2022-06-04 16:35:07
665,Main,7,1,4,Non-designer,False,b_AD,b_AD,True,Probably same,1,305.6,3433.0,8.141189793457691,2022-06-04 16:35:07
666,Main,7,1,5,Non-designer,False,h_AD,h_AD,True,Probably same,1,305.6,3206.0,8.072779333169498,2022-06-04 16:35:07
667,Main,7,1,6,Non-designer,False,j_AA,j_AA,True,Probably different,0,305.6,3962.0,8.284504227258497,2022-06-04 16:35:07
668,Main,7,1,7,Non-designer,False,j_AD,j_AD,True,Sure same,1,305.6,3966.0,8.285513309079741,2022-06-04 16:35:07
669,Main,7,1,8,Non-designer,False,b_AB,b_AD,True,Sure same,1,305.6,2984.0,8.001019961323651,2022-06-04 16:35:07
670,Main,7,1,9,Non-designer,False,q_AD,q_BC,False,Sure same,0,305.6,2872.0,7.962763930168115,2022-06-04 16:35:07
671,Main,7,1,10,Non-designer,False,r_AB,r_AD,True,Sure different,0,305.6,3178.0,8.064007347096661,2022-06-04 16:35:07
672,Main,7,1,11,Non-designer,False,t_AD,t_AD,True,Sure same,1,305.6,3304.0,8.102889134640868,2022-06-04 16:35:07
673,Main,7,1,12,Non-designer,False,h_BD,h_AD,False,Sure same,0,305.6,3102.0,8.039802343736485,2022-06-04 16:35:07
674,Main,7,1,13,Non-designer,False,b_AA,b_DD,False,Sure different,1,305.6,2978.0,7.999007213243955,2022-06-04 16:35:07
675,Main,7,1,14,Non-designer,False,e_AD,e_BD,False,Sure same,0,305.6,3096.0,8.037866234709618,2022-06-04 16:35:07
676,Main,7,1,15,Non-designer,False,c_AD,c_AB,True,Sure different,0,305.6,3038.0,8.018954683155718,2022-06-04 16:35:07
677,Main,7,1,16,Non-designer,False,q_AB,q_AD,True,Sure same,1,305.6,3325.0,8.109224953089955,2022-06-04 16:35:07
678,Main,7,1,17,Non-designer,False,b_AA,b_AA,True,Sure same,1,305.6,2758.0,7.922261058353247,2022-06-04 16:35:07
679,Main,7,1,18,Non-designer,False,h_AD,h_BC,False,Sure same,0,305.6,2788.0,7.933079771880415,2022-06-04 16:35:07
680,Main,7,1,19,Non-designer,False,p_AD,p_BD,False,Sure different,1,305.6,3229.0,8.079927770758275,2022-06-04 16:35:07
681,Main,7,1,20,Non-designer,False,h_AA,h_DD,False,Sure same,0,305.6,2904.0,7.973844375944687,2022-06-04 16:35:07
682,Main,7,1,21,Non-designer,False,n_AA,n_AA,True,Sure same,1,305.6,2946.0,7.988203597022576,2022-06-04 16:35:07
683,Main,7,1,22,Non-designer,False,r_AA,r_AA,True,Sure different,0,305.6,3150.0,8.055157731819678,2022-06-04 16:35:07
684,Main,7,1,23,Non-designer,False,a_BD,a_AD,False,Sure different,1,305.6,3184.0,8.065893546964274,2022-06-04 16:35:07
685,Main,7,1,24,Non-designer,False,e_BC,e_AD,False,Sure same,0,305.6,2974.0,7.9976631270201,2022-06-04 16:35:07
686,Main,7,1,25,Non-designer,False,c_AD,c_AD,True,Sure different,0,305.6,3343.0,8.114623886420098,2022-06-04 16:35:07
687,Main,7,1,26,Non-designer,False,r_DD,r_AA,False,Probably different,1,305.6,4022.0,8.299534570332597,2022-06-04 16:35:07
688,Main,7,1,27,Non-designer,False,t_BD,t_AD,False,Sure different,1,305.6,4247.0,8.353968130313271,2022-06-04 16:35:07
689,Main,7,1,28,Non-designer,False,z_AD,z_BD,False,Sure same,0,305.6,3248.0,8.085794701281568,2022-06-04 16:35:07
690,Main,7,1,29,Non-designer,False,z_AD,z_AD,True,Sure same,1,305.6,2804.0,7.938802248154481,2022-06-04 16:35:07
691,Main,7,1,30,Non-designer,False,b_BC,b_AD,False,Sure same,0,305.6,2747.0,7.918264686095274,2022-06-04 16:35:07
692,Main,7,1,31,Non-designer,False,c_AD,c_BC,False,Sure same,0,305.6,3187.0,8.066835314417336,2022-06-04 16:35:07
693,Main,7,1,32,Non-designer,False,c_AA,c_AA,True,Sure different,0,305.6,3301.0,8.101980731853192,2022-06-04 16:35:07
694,Main,7,1,33,Non-designer,False,e_AD,e_AD,True,Sure same,1,305.6,2878.0,7.964850887447313,2022-06-04 16:35:07
695,Main,7,1,34,Non-designer,False,q_AA,q_DD,False,Sure same,0,305.6,3092.0,8.036573409707312,2022-06-04 16:35:07
696,Main,7,1,35,Non-designer,False,p_AD,p_BC,False,Sure different,1,305.6,3284.0,8.096817470572319,2022-06-04 16:35:07
697,Main,7,1,36,Non-designer,False,z_AA,z_DD,False,Sure different,1,305.6,3066.0,8.028129059431759,2022-06-04 16:35:07
698,Main,7,1,37,Non-designer,False,j_AD,j_AB,True,Sure different,0,305.6,3210.0,8.07402621612406,2022-06-04 16:35:07
699,Main,7,1,38,Non-designer,False,c_DD,c_AA,False,Sure different,1,305.6,2919.0,7.978996370854115,2022-06-04 16:35:07
700,Main,7,1,39,Non-designer,False,q_AA,q_AA,True,Sure different,0,305.6,3097.0,8.038189179973203,2022-06-04 16:35:07
701,Main,7,1,40,Non-designer,False,p_AA,p_AA,True,Sure same,1,305.6,3005.0,8.008032846969307,2022-06-04 16:35:07
702,Main,7,1,41,Non-designer,False,r_AD,r_AD,True,Sure same,1,305.6,4162.0,8.33375100695358,2022-06-04 16:35:07
703,Main,7,1,42,Non-designer,False,b_BD,b_AD,False,Sure same,0,305.6,3004.0,8.007700012884026,2022-06-04 16:35:07
704,Main,7,1,43,Non-designer,False,n_AB,n_AD,True,Sure same,1,305.6,2864.0,7.9599745280805365,2022-06-04 16:35:07
705,Main,7,1,44,Non-designer,False,z_AD,z_BC,False,Sure different,1,305.6,3200.0,8.070906088787819,2022-06-04 16:35:07
706,Main,7,1,45,Non-designer,False,e_AA,e_AA,True,Sure same,1,305.6,3617.0,8.193400231952097,2022-06-04 16:35:07
707,Main,7,1,46,Non-designer,False,c_BD,c_AD,False,Sure different,1,305.6,2803.0,7.938445551164788,2022-06-04 16:35:07
708,Main,7,1,47,Non-designer,False,p_AD,p_AD,True,Sure different,0,305.6,4230.0,8.349957272040324,2022-06-04 16:35:07
709,Main,7,1,48,Non-designer,False,q_AD,q_AD,True,Sure different,0,305.6,3207.0,8.073091199693154,2022-06-04 16:35:07
710,Main,7,1,49,Non-designer,False,q_BD,q_AD,False,Sure different,1,305.6,2927.0,7.9817332866918855,2022-06-04 16:35:07
711,Main,7,1,50,Non-designer,False,r_BD,r_AD,False,Sure different,1,305.6,2891.0,7.969357742016346,2022-06-04 16:35:07
712,Main,7,1,51,Non-designer,False,n_BC,n_AD,False,Sure same,0,305.6,3276.0,8.09437844497296,2022-06-04 16:35:07
713,Main,7,1,52,Non-designer,False,h_AA,h_AA,True,Sure same,1,305.6,2934.0,7.984121958702927,2022-06-04 16:35:07
714,Main,7,1,53,Non-designer,False,z_AA,z_AA,True,Sure different,0,305.6,3015.0,8.011355109161286,2022-06-04 16:35:07
715,Main,7,1,54,Non-designer,False,j_AA,j_DD,False,Sure different,1,305.6,3138.0,8.051340933292979,2022-06-04 16:35:07
716,Main,7,1,55,Non-designer,False,a_AA,a_AA,True,Probably different,0,305.6,4247.0,8.353968130313271,2022-06-04 16:35:07
717,Main,7,1,56,Non-designer,False,h_AD,h_AB,True,Sure same,1,305.6,3167.0,8.06054004653864,2022-06-04 16:35:07
718,Main,7,1,57,Non-designer,False,p_AB,p_AD,True,Sure different,0,305.6,2966.0,7.994969522697877,2022-06-04 16:35:07
719,Main,7,1,58,Non-designer,False,n_AD,n_AD,True,Sure different,0,305.6,4371.0,8.382747094863314,2022-06-04 16:35:07
720,Main,7,1,59,Non-designer,False,t_AD,t_AB,True,Sure different,0,305.6,3130.0,8.048788283534199,2022-06-04 16:35:07
721,Main,7,1,60,Non-designer,False,e_AA,e_DD,False,Sure different,1,305.6,3201.0,8.071218539969863,2022-06-04 16:35:07
722,Main,7,1,61,Non-designer,False,t_AD,t_BC,False,Sure different,1,305.6,3033.0,8.017307507688582,2022-06-04 16:35:07
723,Main,7,1,62,Non-designer,False,p_DD,p_AA,False,Sure different,1,305.6,2719.0,7.908019444632471,2022-06-04 16:35:07
724,Main,7,1,63,Non-designer,False,n_BD,n_AD,False,Sure same,0,305.6,2870.0,7.962067308753666,2022-06-04 16:35:07
725,Main,7,1,64,Non-designer,False,a_BC,a_AD,False,Sure same,0,305.6,2744.0,7.917171988845776,2022-06-04 16:35:07
726,Main,7,1,65,Non-designer,False,a_AD,a_AD,True,Sure different,0,305.6,2717.0,7.907283609426348,2022-06-04 16:35:07
727,Main,7,1,66,Non-designer,False,j_BC,j_AD,False,Probably different,1,305.6,3826.0,8.249575150000199,2022-06-04 16:35:07
728,Main,7,1,67,Non-designer,False,n_DD,n_AA,False,Sure different,1,305.6,2963.0,7.993957547573565,2022-06-04 16:35:07
729,Main,7,1,68,Non-designer,False,j_AD,j_BD,False,Sure different,1,305.6,3078.0,8.032035314398824,2022-06-04 16:35:07
730,Main,7,1,69,Non-designer,False,r_BC,r_AD,False,Sure different,1,305.6,2950.0,7.989560449333865,2022-06-04 16:35:07
731,Main,7,1,70,Non-designer,False,a_AA,a_DD,False,Sure different,1,305.6,2787.0,7.932721027481948,2022-06-04 16:35:07
732,Main,7,1,71,Non-designer,False,t_AA,t_DD,False,Sure different,1,305.6,2780.0,7.930206206684683,2022-06-04 16:35:07
733,Main,7,1,72,Non-designer,False,e_AB,e_AD,True,Sure same,1,305.6,2919.0,7.978996370854115,2022-06-04 16:35:07
734,Main,7,0,19,Non-designer,False,u_BD,u_AD,False,Sure different,1,725.0,3795.0,8.24143968982973,2022-06-04 16:35:07
735,Main,7,0,20,Non-designer,False,i_AD,i_AD,True,Sure same,1,800.0,5457.0,8.604654467186231,2022-06-04 16:35:07
736,Main,8,0,1,Graphic designer,True,d_BC,d_AD,False,Sure different,1,800.0,8496.0,9.04735074348172,2022-06-04 16:34:34
737,Main,8,0,2,Graphic designer,True,u_AA,u_DD,False,Sure different,1,800.0,4015.0,8.297792626380861,2022-06-04 16:34:34
738,Main,8,0,3,Graphic designer,True,d_AA,d_DD,False,Sure different,1,800.0,3714.0,8.219864741912652,2022-06-04 16:34:34
739,Main,8,0,4,Graphic designer,True,d_AA,d_AA,True,Probably different,0,725.0,4230.0,8.349957272040324,2022-06-04 16:34:34
740,Main,8,0,5,Graphic designer,True,i_AA,i_DD,False,Sure different,1,650.0,3397.0,8.130647968160584,2022-06-04 16:34:34
741,Main,8,0,6,Graphic designer,True,d_BC,d_AD,False,Sure different,1,575.0,3298.0,8.101071503119543,2022-06-04 16:34:34
742,Main,8,0,7,Graphic designer,True,i_BD,i_AD,False,Sure different,1,500.0,3125.0,8.047189562170502,2022-06-04 16:34:34
743,Main,8,0,8,Graphic designer,True,d_BD,d_AD,False,Sure different,1,425.0,3105.0,8.040768994367578,2022-06-04 16:34:34
744,Main,8,0,9,Graphic designer,True,u_AB,u_AD,True,Probably same,1,350.0,4309.0,8.368461137615839,2022-06-04 16:34:34
745,Main,8,0,10,Graphic designer,True,d_AD,d_AB,True,Sure same,1,275.0,3680.0,8.210668031162976,2022-06-04 16:34:34
746,Main,8,0,11,Graphic designer,True,u_AD,u_BC,False,Sure different,1,200.0,3005.0,8.008032846969307,2022-06-04 16:34:34
747,Main,8,0,12,Graphic designer,True,u_AA,u_AA,True,Sure same,1,200.0,3238.0,8.08271113423758,2022-06-04 16:34:34
748,Main,8,0,13,Graphic designer,True,i_BC,i_AD,False,Sure different,1,275.0,3285.0,8.09712193091871,2022-06-04 16:34:34
749,Main,8,0,14,Graphic designer,True,i_AD,i_AB,True,Probably same,1,350.0,15829.0,9.669598979685738,2022-06-04 16:34:34
750,Main,8,0,15,Graphic designer,True,u_AD,u_AD,True,Sure same,1,425.0,4467.0,8.404472321352118,2022-06-04 16:34:34
751,Main,8,0,16,Graphic designer,True,u_AA,u_DD,False,Sure different,1,500.0,3903.0,8.269500767180615,2022-06-04 16:34:34
752,Main,8,0,17,Graphic designer,True,d_AD,d_AD,True,Probably same,1,575.0,6536.0,8.785080636539838,2022-06-04 16:34:34
753,Main,8,0,18,Graphic designer,True,i_AA,i_AA,True,Sure same,1,650.0,4804.0,8.477204183199873,2022-06-04 16:34:34
754,Main,8,1,1,Graphic designer,True,n_AD,n_AD,True,Probably same,1,188.9,8374.0,9.032886946579088,2022-06-04 16:34:34
755,Main,8,1,2,Graphic designer,True,e_AD,e_BD,False,Probably same,0,188.9,5366.0,8.58783803098557,2022-06-04 16:34:34
756,Main,8,1,3,Graphic designer,True,h_BC,h_AD,False,Probably same,0,188.9,5209.0,8.558143177745192,2022-06-04 16:34:34
757,Main,8,1,4,Graphic designer,True,z_AD,z_AD,True,Probably same,1,188.9,2882.0,7.966239776559467,2022-06-04 16:34:34
758,Main,8,1,5,Graphic designer,True,n_BD,n_AD,False,Probably same,0,188.9,4408.0,8.391176350832751,2022-06-04 16:34:34
759,Main,8,1,6,Graphic designer,True,a_AD,a_BD,False,Probably different,1,188.9,3521.0,8.166500319155052,2022-06-04 16:34:34
760,Main,8,1,7,Graphic designer,True,c_AD,c_AB,True,Probably different,0,188.9,8067.0,8.995536944936974,2022-06-04 16:34:34
761,Main,8,1,8,Graphic designer,True,c_DD,c_AA,False,Sure different,1,188.9,2857.0,7.957527402230773,2022-06-04 16:34:34
762,Main,8,1,9,Graphic designer,True,r_AA,r_AA,True,Probably same,1,188.9,3747.0,8.228710798793687,2022-06-04 16:34:34
763,Main,8,1,10,Graphic designer,True,c_AA,c_AA,True,Sure different,0,188.9,2958.0,7.992268643270745,2022-06-04 16:34:34
764,Main,8,1,11,Graphic designer,True,t_BD,t_AD,False,Sure different,1,188.9,2790.0,7.933796874815411,2022-06-04 16:34:34
765,Main,8,1,12,Graphic designer,True,z_AD,z_BD,False,Sure different,1,188.9,2892.0,7.969703583278656,2022-06-04 16:34:34
766,Main,8,1,13,Graphic designer,True,b_DD,b_AA,False,Sure different,1,188.9,2790.0,7.933796874815411,2022-06-04 16:34:34
767,Main,8,1,14,Graphic designer,True,c_BD,c_AD,False,Sure different,1,188.9,2969.0,7.99598047476376,2022-06-04 16:34:34
768,Main,8,1,15,Graphic designer,True,t_AD,t_AD,True,Probably same,1,188.9,7683.0,8.946765374867635,2022-06-04 16:34:34
769,Main,8,1,16,Graphic designer,True,b_AD,b_AD,True,Probably same,1,188.9,4749.0,8.465689348549121,2022-06-04 16:34:34
770,Main,8,1,17,Graphic designer,True,q_AD,q_BC,False,Probably same,0,188.9,4016.0,8.298041661371565,2022-06-04 16:34:34
771,Main,8,1,18,Graphic designer,True,e_AB,e_AD,True,Probably same,1,188.9,2768.0,7.92588031673756,2022-06-04 16:34:34
772,Main,8,1,19,Graphic designer,True,b_BC,b_AD,False,Sure different,1,188.9,3321.0,8.108021221376747,2022-06-04 16:34:34
773,Main,8,1,20,Graphic designer,True,r_AD,r_BC,False,Sure different,1,188.9,3114.0,8.043663352393944,2022-06-04 16:34:34
774,Main,8,1,21,Graphic designer,True,j_AA,j_DD,False,Sure different,1,188.9,2701.0,7.901377353792616,2022-06-04 16:34:34
775,Main,8,1,22,Graphic designer,True,e_AD,e_AD,True,Probably different,0,188.9,3611.0,8.191740021277457,2022-06-04 16:34:34
776,Main,8,1,23,Graphic designer,True,j_AA,j_AA,True,Probably same,1,188.9,4703.0,8.455955881945048,2022-06-04 16:34:34
777,Main,8,1,24,Graphic designer,True,n_BC,n_AD,False,Probably different,1,188.9,5759.0,8.658519127506672,2022-06-04 16:34:34
778,Main,8,1,25,Graphic designer,True,q_AA,q_AA,True,Probably same,1,188.9,3736.0,8.225770799348734,2022-06-04 16:34:34
779,Main,8,1,26,Graphic designer,True,t_AA,t_AA,True,Probably same,1,188.9,4487.0,8.408939605975984,2022-06-04 16:34:34
780,Main,8,1,27,Graphic designer,True,j_AD,j_AB,True,Sure different,0,188.9,3398.0,8.130942302231878,2022-06-04 16:34:34
781,Main,8,1,28,Graphic designer,True,a_AD,a_AD,True,Probably different,0,188.9,11465.0,9.347054195292005,2022-06-04 16:34:34
782,Main,8,1,29,Graphic designer,True,z_AA,z_AA,True,Probably same,1,188.9,5119.0,8.540714386457584,2022-06-04 16:34:34
783,Main,8,1,30,Graphic designer,True,q_AD,q_AD,True,Probably same,1,188.9,3106.0,8.041091003708633,2022-06-04 16:34:34
784,Main,8,1,31,Graphic designer,True,n_AA,n_AA,True,Probably same,1,188.9,2766.0,7.925157512224703,2022-06-04 16:34:34
785,Main,8,1,32,Graphic designer,True,t_BC,t_AD,False,Probably different,1,188.9,3882.0,8.264105763728956,2022-06-04 16:34:34
786,Main,8,1,33,Graphic designer,True,r_BD,r_AD,False,Probably same,0,188.9,5230.0,8.56216655705897,2022-06-04 16:34:34
787,Main,8,1,34,Graphic designer,True,h_BD,h_AD,False,Sure different,1,188.9,2903.0,7.97349996402463,2022-06-04 16:34:34
788,Main,8,1,35,Graphic designer,True,e_DD,e_AA,False,Sure different,1,188.9,2914.0,7.97728198675515,2022-06-04 16:34:34
789,Main,8,1,36,Graphic designer,True,r_AA,r_DD,False,Sure different,1,188.9,2746.0,7.917900586327916,2022-06-04 16:34:34
790,Main,8,1,37,Graphic designer,True,a_AA,a_DD,False,Sure different,1,188.9,2508.0,7.827240901752812,2022-06-04 16:34:34
791,Main,8,1,38,Graphic designer,True,b_AD,b_BD,False,Probably same,0,188.9,4376.0,8.383890344101816,2022-06-04 16:34:34
792,Main,8,1,39,Graphic designer,True,p_AD,p_AD,True,Sure different,0,188.9,2880.0,7.965545573129992,2022-06-04 16:34:34
793,Main,8,1,40,Graphic designer,True,t_DD,t_AA,False,Sure different,1,188.9,2577.0,7.854381210652365,2022-06-04 16:34:34
794,Main,8,1,41,Graphic designer,True,p_BD,p_AD,False,Sure different,1,188.9,2306.0,7.743269700829004,2022-06-04 16:34:34
795,Main,8,1,42,Graphic designer,True,e_AA,e_AA,True,Probably different,0,188.9,3443.0,8.144098463338524,2022-06-04 16:34:34
796,Main,8,1,43,Graphic designer,True,z_AD,z_AB,True,Sure different,0,188.9,2856.0,7.957177323459475,2022-06-04 16:34:34
797,Main,8,1,44,Graphic designer,True,p_AA,p_DD,False,Sure different,1,188.9,2565.0,7.84971375760487,2022-06-04 16:34:34
798,Main,8,1,45,Graphic designer,True,p_AD,p_AB,True,Probably different,0,188.9,3499.0,8.160232492367689,2022-06-04 16:34:34
799,Main,8,1,46,Graphic designer,True,a_AB,a_AD,True,Probably different,0,188.9,3285.0,8.09712193091871,2022-06-04 16:34:34
800,Main,8,1,47,Graphic designer,True,a_AD,a_BC,False,Sure different,1,188.9,2746.0,7.917900586327916,2022-06-04 16:34:34
801,Main,8,1,48,Graphic designer,True,n_AB,n_AD,True,Probably same,1,188.9,4894.0,8.495765244002618,2022-06-04 16:34:34
802,Main,8,1,49,Graphic designer,True,h_AA,h_DD,False,Sure different,1,188.9,2914.0,7.97728198675515,2022-06-04 16:34:34
803,Main,8,1,50,Graphic designer,True,b_AA,b_AA,True,Probably same,1,188.9,4376.0,8.383890344101816,2022-06-04 16:34:34
804,Main,8,1,51,Graphic designer,True,c_AD,c_AD,True,Sure different,0,188.9,3004.0,8.007700012884026,2022-06-04 16:34:34
805,Main,8,1,52,Graphic designer,True,t_AD,t_AB,True,Sure different,0,188.9,3307.0,8.103796712981794,2022-06-04 16:34:34
806,Main,8,1,53,Graphic designer,True,r_AD,r_AB,True,Probably different,0,188.9,7268.0,8.891236429516061,2022-06-04 16:34:34
807,Main,8,1,54,Graphic designer,True,j_AD,j_BD,False,Sure different,1,188.9,2958.0,7.992268643270745,2022-06-04 16:34:34
808,Main,8,1,55,Graphic designer,True,c_BC,c_AD,False,Sure different,1,188.9,2543.0,7.841099765422119,2022-06-04 16:34:34
809,Main,8,1,56,Graphic designer,True,h_AA,h_AA,True,Probably same,1,188.9,3701.0,8.216358332386156,2022-06-04 16:34:34
810,Main,8,1,57,Graphic designer,True,b_AD,b_AB,True,Probably same,1,188.9,3398.0,8.130942302231878,2022-06-04 16:34:34
811,Main,8,1,58,Graphic designer,True,j_AD,j_AD,True,Probably same,1,188.9,3015.0,8.011355109161286,2022-06-04 16:34:34
812,Main,8,1,59,Graphic designer,True,z_DD,z_AA,False,Sure different,1,188.9,2779.0,7.929846429742503,2022-06-04 16:34:34
813,Main,8,1,60,Graphic designer,True,e_AD,e_BC,False,Sure different,1,188.9,2835.0,7.949797216161852,2022-06-04 16:34:34
814,Main,8,1,61,Graphic designer,True,a_AA,a_AA,True,Probably same,1,188.9,4332.0,8.37378460812088,2022-06-04 16:34:34
815,Main,8,1,62,Graphic designer,True,q_BD,q_AD,False,Sure different,1,188.9,2721.0,7.908754738783246,2022-06-04 16:34:34
816,Main,8,1,63,Graphic designer,True,h_AD,h_AD,True,Probably same,1,188.9,3645.0,8.201111644442758,2022-06-04 16:34:34
817,Main,8,1,64,Graphic designer,True,p_AA,p_AA,True,Probably same,1,188.9,3488.0,8.15708378502887,2022-06-04 16:34:34
818,Main,8,1,65,Graphic designer,True,j_BC,j_AD,False,Sure different,1,188.9,2620.0,7.8709295967551425,2022-06-04 16:34:34
819,Main,8,1,66,Graphic designer,True,p_BC,p_AD,False,Probably different,1,188.9,3658.0,8.204671828950811,2022-06-04 16:34:34
820,Main,8,1,67,Graphic designer,True,h_AD,h_AB,True,Probably same,1,188.9,4432.0,8.39660622842712,2022-06-04 16:34:34
821,Main,8,1,68,Graphic designer,True,q_AD,q_AB,True,Probably same,1,188.9,3240.0,8.083328608786376,2022-06-04 16:34:34
822,Main,8,1,69,Graphic designer,True,q_DD,q_AA,False,Sure different,1,188.9,2689.0,7.896924656268864,2022-06-04 16:34:34
823,Main,8,1,70,Graphic designer,True,n_DD,n_AA,False,Sure different,1,188.9,2464.0,7.80954132465341,2022-06-04 16:34:34
824,Main,8,1,71,Graphic designer,True,z_AD,z_BC,False,Sure different,1,188.9,2486.0,7.818430272070656,2022-06-04 16:34:34
825,Main,8,1,72,Graphic designer,True,r_AD,r_AD,True,Probably same,1,188.9,5266.0,8.569026340056254,2022-06-04 16:34:34
826,Main,8,0,19,Graphic designer,True,u_AD,u_BD,False,Sure different,1,725.0,3724.0,8.222553638396958,2022-06-04 16:34:34
827,Main,8,0,20,Graphic designer,True,i_AD,i_AD,True,Sure same,1,800.0,5074.0,8.531884740159228,2022-06-04 16:34:34
828,Main,9,0,1,Graphic designer,True,d_BC,d_AD,False,Probably same,0,800.0,10734.0,9.281171552736774,2022-06-04 15:39:21
829,Main,9,0,2,Graphic designer,True,u_DD,u_AA,False,Sure different,1,800.0,8334.0,9.0280988119824,2022-06-04 15:39:21
830,Main,9,0,3,Graphic designer,True,d_DD,d_AA,False,Sure different,1,800.0,4070.0,8.311398278436641,2022-06-04 15:39:21
831,Main,9,0,4,Graphic designer,True,d_AA,d_AA,True,Sure same,1,725.0,3696.0,8.215006432761575,2022-06-04 15:39:21
832,Main,9,0,5,Graphic designer,True,i_DD,i_AA,False,Sure different,1,650.0,3366.0,8.121480374750751,2022-06-04 15:39:21
833,Main,9,0,6,Graphic designer,True,d_AD,d_BC,False,Sure different,1,575.0,4589.0,8.431417414394833,2022-06-04 15:39:21
834,Main,9,0,7,Graphic designer,True,i_AD,i_BD,False,Sure different,1,500.0,3373.0,8.12355783506165,2022-06-04 15:39:21
835,Main,9,0,8,Graphic designer,True,d_AD,d_BD,False,Probably different,1,425.0,3769.0,8.234564993267135,2022-06-04 15:39:21
836,Main,9,0,9,Graphic designer,True,u_AB,u_AD,True,Sure same,1,350.0,3977.0,8.28828304520769,2022-06-04 15:39:21
837,Main,9,0,10,Graphic designer,True,d_AB,d_AD,True,Probably same,1,275.0,2960.0,7.992944547318106,2022-06-04 15:39:21
838,Main,9,0,11,Graphic designer,True,u_BC,u_AD,False,Sure different,1,200.0,3624.0,8.19533366716287,2022-06-04 15:39:21
839,Main,9,0,12,Graphic designer,True,u_AA,u_AA,True,Sure same,1,200.0,3099.0,8.038834757787749,2022-06-04 15:39:21
840,Main,9,0,13,Graphic designer,True,i_AD,i_BC,False,Sure different,1,275.0,3180.0,8.064636475774222,2022-06-04 15:39:21
841,Main,9,0,14,Graphic designer,True,i_AD,i_AB,True,Sure same,1,350.0,2979.0,7.999342952713282,2022-06-04 15:39:21
842,Main,9,0,15,Graphic designer,True,u_AD,u_AD,True,Probably same,1,425.0,3738.0,8.226305988015508,2022-06-04 15:39:21
843,Main,9,0,16,Graphic designer,True,u_DD,u_AA,False,Sure different,1,500.0,3281.0,8.0959035329611,2022-06-04 15:39:21
844,Main,9,0,17,Graphic designer,True,d_AD,d_AD,True,Probably different,0,575.0,3936.0,8.277920258172143,2022-06-04 15:39:21
845,Main,9,0,18,Graphic designer,True,i_AA,i_AA,True,Probably same,1,650.0,3688.0,8.212839584676484,2022-06-04 15:39:21
846,Main,9,1,1,Graphic designer,True,p_AD,p_AD,True,Probably same,1,188.9,5363.0,8.587278798982926,2022-06-04 15:39:21
