,StudyID,ParticipantID,TestID,TrialID,Training,isDesigner,First,Second,Composite pair,Congruent pair,Same,Response,Correct,Correct (normalized),ET,RT,RT (normalized),Date
0,Main,0,0,1,Non-designer,False,d_BC,d_AD,True,True,False,Probably different,1,3.141592653589793,800.0,12339.0,9.420520256898534,2022-06-17 13:55:27
1,Main,0,0,2,Non-designer,False,u_DD,u_AA,False,True,False,Sure different,1,3.141592653589793,800.0,4533.0,8.41913925094085,2022-06-17 13:55:27
2,Main,0,0,3,Non-designer,False,d_DD,d_AA,False,True,False,Sure different,1,3.141592653589793,800.0,5877.0,8.678801706612651,2022-06-17 13:55:27
3,Main,0,0,4,Non-designer,False,d_AA,d_AA,False,True,True,Probably different,0,0.0,725.0,20438.0,9.925151192172155,2022-06-17 13:55:27
4,Main,0,0,5,Non-designer,False,i_AA,i_DD,False,True,False,Sure different,1,3.141592653589793,650.0,6636.0,8.800264651310336,2022-06-17 13:55:27
5,Main,0,0,6,Non-designer,False,d_AD,d_BC,True,True,False,Probably same,0,0.0,575.0,3778.0,8.236950048061455,2022-06-17 13:55:27
6,Main,0,0,7,Non-designer,False,i_BD,i_AD,True,False,False,Sure different,1,3.141592653589793,500.0,3371.0,8.12296471523406,2022-06-17 13:55:27
7,Main,0,0,8,Non-designer,False,d_BD,d_AD,True,False,False,Probably same,0,0.0,425.0,3579.0,8.182838710766026,2022-06-17 13:55:27
8,Main,0,0,9,Non-designer,False,u_AD,u_AB,True,False,True,Probably same,1,3.141592653589793,350.0,4267.0,8.358666283188,2022-06-17 13:55:27
9,Main,0,0,10,Non-designer,False,d_AB,d_AD,True,False,True,Probably same,1,3.141592653589793,275.0,13010.0,9.47347357150655,2022-06-17 13:55:27
10,Main,0,0,11,Non-designer,False,u_BC,u_AD,True,True,False,Probably different,1,3.141592653589793,200.0,2915.0,7.977625098784593,2022-06-17 13:55:27
11,Main,0,0,12,Non-designer,False,u_AA,u_AA,False,True,True,Probably same,1,3.141592653589793,200.0,2645.0,7.8804263442924,2022-06-17 13:55:27
12,Main,0,0,13,Non-designer,False,i_BC,i_AD,True,True,False,Sure different,1,3.141592653589793,275.0,2732.0,7.912789220690681,2022-06-17 13:55:27
13,Main,0,0,14,Non-designer,False,i_AD,i_AB,True,False,True,Sure same,1,3.141592653589793,350.0,2853.0,7.9561263512135,2022-06-17 13:55:27
14,Main,0,0,15,Non-designer,False,u_AD,u_AD,True,True,True,Probably same,1,3.141592653589793,425.0,3471.0,8.152198015861787,2022-06-17 13:55:27
15,Main,0,0,16,Non-designer,False,u_DD,u_AA,False,True,False,Sure different,1,3.141592653589793,500.0,3531.0,8.169336395928386,2022-06-17 13:55:27
16,Main,0,0,17,Non-designer,False,d_AD,d_AD,True,True,True,Sure same,1,3.141592653589793,575.0,3851.0,8.25608813381491,2022-06-17 13:55:27
17,Main,0,0,18,Non-designer,False,i_AA,i_AA,False,True,True,Sure same,1,3.141592653589793,650.0,3955.0,8.282735880201754,2022-06-17 13:55:27
18,Main,0,1,1,Non-designer,False,b_AB,b_AD,True,False,True,Probably same,1,3.141592653589793,266.7,5783.0,8.662677858158219,2022-06-17 13:55:27
19,Main,0,1,2,Non-designer,False,z_AB,z_AD,True,False,True,Probably same,1,3.141592653589793,266.7,3088.0,8.035278911144667,2022-06-17 13:55:27
20,Main,0,1,3,Non-designer,False,j_AD,j_AD,True,True,True,Probably same,1,3.141592653589793,266.7,2881.0,7.9658927350845286,2022-06-17 13:55:27
21,Main,0,1,4,Non-designer,False,r_AD,r_AD,True,True,True,Probably same,1,3.141592653589793,266.7,2814.0,7.942362237674335,2022-06-17 13:55:27
22,Main,0,1,5,Non-designer,False,h_AD,h_BC,True,True,False,Probably same,0,0.0,266.7,2583.0,7.8567067930958405,2022-06-17 13:55:27
23,Main,0,1,6,Non-designer,False,p_DD,p_AA,False,True,False,Sure different,1,3.141592653589793,266.7,2760.0,7.9229859587111955,2022-06-17 13:55:27
24,Main,0,1,7,Non-designer,False,n_AA,n_AA,False,True,True,Probably different,0,0.0,266.7,3486.0,8.156510226079966,2022-06-17 13:55:27
25,Main,0,1,8,Non-designer,False,p_AA,p_AA,False,True,True,Probably same,1,3.141592653589793,266.7,3312.0,8.10530751550515,2022-06-17 13:55:27
26,Main,0,1,9,Non-designer,False,e_DD,e_AA,False,True,False,Sure different,1,3.141592653589793,266.7,2777.0,7.9291264873067995,2022-06-17 13:55:27
27,Main,0,1,10,Non-designer,False,n_AB,n_AD,True,False,True,Probably different,0,0.0,266.7,2975.0,7.99799931797973,2022-06-17 13:55:27
28,Main,0,1,11,Non-designer,False,h_AD,h_AB,True,False,True,Sure same,1,3.141592653589793,266.7,3062.0,8.026823576217629,2022-06-17 13:55:27
29,Main,0,1,12,Non-designer,False,z_AA,z_AA,False,True,True,Sure same,1,3.141592653589793,266.7,2980.0,7.9996785794994505,2022-06-17 13:55:27
30,Main,0,1,13,Non-designer,False,n_DD,n_AA,False,True,False,Probably different,1,3.141592653589793,266.7,3163.0,8.059276223305648,2022-06-17 13:55:27
31,Main,0,1,14,Non-designer,False,h_AA,h_AA,False,True,True,Sure same,1,3.141592653589793,266.7,2928.0,7.982074875081202,2022-06-17 13:55:27
32,Main,0,1,15,Non-designer,False,c_DD,c_AA,False,True,False,Sure different,1,3.141592653589793,266.7,3315.0,8.106212902619962,2022-06-17 13:55:27
33,Main,0,1,16,Non-designer,False,z_AD,z_AD,True,True,True,Sure same,1,3.141592653589793,266.7,2859.0,7.958227192322312,2022-06-17 13:55:27
34,Main,0,1,17,Non-designer,False,c_BC,c_AD,True,True,False,Sure different,1,3.141592653589793,266.7,3169.0,8.06117135969092,2022-06-17 13:55:27
35,Main,0,1,18,Non-designer,False,b_AD,b_BC,True,True,False,Probably same,0,0.0,266.7,2892.0,7.969703583278656,2022-06-17 13:55:27
36,Main,0,1,19,Non-designer,False,n_AD,n_BD,True,False,False,Probably same,0,0.0,266.7,2647.0,7.881182202227102,2022-06-17 13:55:27
37,Main,0,1,20,Non-designer,False,n_AD,n_AD,True,True,True,Sure same,1,3.141592653589793,266.7,2838.0,7.950854857719988,2022-06-17 13:55:27
38,Main,0,1,21,Non-designer,False,j_AA,j_AA,False,True,True,Probably same,1,3.141592653589793,266.7,4666.0,8.448057452581375,2022-06-17 13:55:27
39,Main,0,1,22,Non-designer,False,z_BD,z_AD,True,False,False,Sure different,1,3.141592653589793,266.7,2854.0,7.956476798036782,2022-06-17 13:55:27
40,Main,0,1,23,Non-designer,False,r_AD,r_BC,True,True,False,Sure different,1,3.141592653589793,266.7,3324.0,8.10892415597534,2022-06-17 13:55:27
41,Main,0,1,24,Non-designer,False,j_AD,j_AB,True,False,True,Sure different,0,0.0,266.7,3316.0,8.106514516255185,2022-06-17 13:55:27
42,Main,0,1,25,Non-designer,False,a_AA,a_AA,False,True,True,Probably different,0,0.0,266.7,3510.0,8.163371316459912,2022-06-17 13:55:27
43,Main,0,1,26,Non-designer,False,h_AD,h_AD,True,True,True,Sure same,1,3.141592653589793,266.7,2970.0,7.996317231796746,2022-06-17 13:55:27
44,Main,0,1,27,Non-designer,False,q_AA,q_AA,False,True,True,Probably same,1,3.141592653589793,266.7,4043.0,8.304742269640771,2022-06-17 13:55:27
45,Main,0,1,28,Non-designer,False,e_BD,e_AD,True,False,False,Probably same,0,0.0,266.7,3360.0,8.11969625295725,2022-06-17 13:55:27
46,Main,0,1,29,Non-designer,False,p_AB,p_AD,True,False,True,Probably different,0,0.0,266.7,3164.0,8.059592328887545,2022-06-17 13:55:27
47,Main,0,1,30,Non-designer,False,j_BD,j_AD,True,False,False,Sure different,1,3.141592653589793,266.7,2834.0,7.949444420250626,2022-06-17 13:55:27
48,Main,0,1,31,Non-designer,False,j_AA,j_DD,False,True,False,Sure different,1,3.141592653589793,266.7,2758.0,7.922261058353247,2022-06-17 13:55:27
49,Main,0,1,32,Non-designer,False,q_DD,q_AA,False,True,False,Sure different,1,3.141592653589793,266.7,2988.0,8.002359546252707,2022-06-17 13:55:27
50,Main,0,1,33,Non-designer,False,c_AB,c_AD,True,False,True,Sure different,0,0.0,266.7,3248.0,8.085794701281568,2022-06-17 13:55:27
51,Main,0,1,34,Non-designer,False,p_BD,p_AD,True,False,False,Sure different,1,3.141592653589793,266.7,2748.0,7.91862865334224,2022-06-17 13:55:27
52,Main,0,1,35,Non-designer,False,b_AD,b_AD,True,True,True,Probably same,1,3.141592653589793,266.7,3996.0,8.293049139768444,2022-06-17 13:55:27
53,Main,0,1,36,Non-designer,False,z_BC,z_AD,True,True,False,Sure different,1,3.141592653589793,266.7,2598.0,7.862497197230545,2022-06-17 13:55:27
54,Main,0,1,37,Non-designer,False,h_AD,h_BD,True,False,False,Sure different,1,3.141592653589793,266.7,3343.0,8.114623886420098,2022-06-17 13:55:27
55,Main,0,1,38,Non-designer,False,n_BC,n_AD,True,True,False,Sure different,1,3.141592653589793,266.7,2781.0,7.930565854233965,2022-06-17 13:55:27
56,Main,0,1,39,Non-designer,False,t_AD,t_AD,True,True,True,Probably same,1,3.141592653589793,266.7,3096.0,8.037866234709618,2022-06-17 13:55:27
57,Main,0,1,40,Non-designer,False,q_AD,q_AB,True,False,True,Probably same,1,3.141592653589793,266.7,3976.0,8.288031567776464,2022-06-17 13:55:27
58,Main,0,1,41,Non-designer,False,c_BD,c_AD,True,False,False,Sure different,1,3.141592653589793,266.7,2932.0,7.983440063006542,2022-06-17 13:55:27
59,Main,0,1,42,Non-designer,False,e_AD,e_AD,True,True,True,Probably same,1,3.141592653589793,266.7,3202.0,8.07153089355666,2022-06-17 13:55:27
60,Main,0,1,43,Non-designer,False,a_AB,a_AD,True,False,True,Probably same,1,3.141592653589793,266.7,4048.0,8.305978210967302,2022-06-17 13:55:27
61,Main,0,1,44,Non-designer,False,e_AD,e_AB,True,False,True,Probably different,0,0.0,266.7,3286.0,8.097426298597213,2022-06-17 13:55:27
62,Main,0,1,45,Non-designer,False,p_AD,p_AD,True,True,True,Probably same,1,3.141592653589793,266.7,3265.0,8.09101504171053,2022-06-17 13:55:27
63,Main,0,1,46,Non-designer,False,b_AA,b_AA,False,True,True,Probably same,1,3.141592653589793,266.7,2727.0,7.910957382845589,2022-06-17 13:55:27
64,Main,0,1,47,Non-designer,False,t_BC,t_AD,True,True,False,Probably different,1,3.141592653589793,266.7,2736.0,7.914252278742441,2022-06-17 13:55:27
65,Main,0,1,48,Non-designer,False,e_AA,e_AA,False,True,True,Sure same,1,3.141592653589793,266.7,3376.0,8.124446855715847,2022-06-17 13:55:27
66,Main,0,1,49,Non-designer,False,c_AD,c_AD,True,True,True,Probably same,1,3.141592653589793,266.7,3069.0,8.029107054619736,2022-06-17 13:55:27
67,Main,0,1,50,Non-designer,False,b_AA,b_DD,False,True,False,Probably different,1,3.141592653589793,266.7,3118.0,8.044947049617722,2022-06-17 13:55:27
68,Main,0,1,51,Non-designer,False,r_AA,r_AA,False,True,True,Probably same,1,3.141592653589793,266.7,3045.0,8.021256180143997,2022-06-17 13:55:27
69,Main,0,1,52,Non-designer,False,a_DD,a_AA,False,True,False,Sure different,1,3.141592653589793,266.7,3082.0,8.033334015880062,2022-06-17 13:55:27
70,Main,0,1,53,Non-designer,False,r_AA,r_DD,False,True,False,Sure different,1,3.141592653589793,266.7,2782.0,7.930925372483388,2022-06-17 13:55:27
71,Main,0,1,54,Non-designer,False,a_AD,a_AD,True,True,True,Sure same,1,3.141592653589793,266.7,2845.0,7.953318346560431,2022-06-17 13:55:27
72,Main,0,1,55,Non-designer,False,a_AD,a_BC,True,True,False,Sure same,0,0.0,266.7,2719.0,7.908019444632471,2022-06-17 13:55:27
73,Main,0,1,56,Non-designer,False,a_AD,a_BD,True,False,False,Sure same,0,0.0,266.7,2666.0,7.888334500738654,2022-06-17 13:55:27
74,Main,0,1,57,Non-designer,False,e_BC,e_AD,True,True,False,Sure same,0,0.0,266.7,2790.0,7.933796874815411,2022-06-17 13:55:27
75,Main,0,1,58,Non-designer,False,r_AB,r_AD,True,False,True,Sure same,1,3.141592653589793,266.7,2785.0,7.932003152361385,2022-06-17 13:55:27
76,Main,0,1,59,Non-designer,False,t_DD,t_AA,False,True,False,Sure different,1,3.141592653589793,266.7,3068.0,8.028781162487148,2022-06-17 13:55:27
77,Main,0,1,60,Non-designer,False,c_AA,c_AA,False,True,True,Probably same,1,3.141592653589793,266.7,3376.0,8.124446855715847,2022-06-17 13:55:27
78,Main,0,1,61,Non-designer,False,t_AA,t_AA,False,True,True,Sure same,1,3.141592653589793,266.7,3025.0,8.014666370464942,2022-06-17 13:55:27
79,Main,0,1,62,Non-designer,False,p_AD,p_BC,True,True,False,Probably different,1,3.141592653589793,266.7,3830.0,8.250620082174692,2022-06-17 13:55:27
80,Main,0,1,63,Non-designer,False,h_AA,h_DD,False,True,False,Sure different,1,3.141592653589793,266.7,3216.0,8.075893630298857,2022-06-17 13:55:27
81,Main,0,1,64,Non-designer,False,j_BC,j_AD,True,True,False,Sure same,0,0.0,266.7,3737.0,8.226038429485484,2022-06-17 13:55:27
82,Main,0,1,65,Non-designer,False,q_BD,q_AD,True,False,False,Sure same,0,0.0,266.7,2639.0,7.878155336503324,2022-06-17 13:55:27
83,Main,0,1,66,Non-designer,False,q_AD,q_AD,True,True,True,Sure same,1,3.141592653589793,266.7,2700.0,7.90100705199242,2022-06-17 13:55:27
84,Main,0,1,67,Non-designer,False,b_AD,b_BD,True,False,False,Probably same,0,0.0,266.7,3458.0,8.148445666243235,2022-06-17 13:55:27
85,Main,0,1,68,Non-designer,False,q_AD,q_BC,True,True,False,Sure same,0,0.0,266.7,3016.0,8.011686729127847,2022-06-17 13:55:27
86,Main,0,1,69,Non-designer,False,t_AB,t_AD,True,False,True,Sure same,1,3.141592653589793,266.7,2631.0,7.875119281040293,2022-06-17 13:55:27
87,Main,0,1,70,Non-designer,False,t_AD,t_BD,True,False,False,Probably different,1,3.141592653589793,266.7,3423.0,8.138272638530186,2022-06-17 13:55:27
88,Main,0,1,71,Non-designer,False,r_AD,r_BD,True,False,False,Probably same,0,0.0,266.7,3531.0,8.169336395928386,2022-06-17 13:55:27
89,Main,0,1,72,Non-designer,False,z_DD,z_AA,False,True,False,Sure different,1,3.141592653589793,266.7,2853.0,7.9561263512135,2022-06-17 13:55:27
90,Main,0,0,19,Non-designer,False,u_AD,u_BD,True,False,False,Sure different,1,3.141592653589793,725.0,3572.0,8.18088094199639,2022-06-17 13:55:27
91,Main,0,0,20,Non-designer,False,i_AD,i_AD,True,True,True,Probably same,1,3.141592653589793,800.0,5839.0,8.672314828283538,2022-06-17 13:55:27
92,Main,1,0,1,Letter designer,True,d_BC,d_AD,True,True,False,Probably same,0,0.0,800.0,42379.0,10.654408235508033,2022-06-17 13:23:00
93,Main,1,0,2,Letter designer,True,u_DD,u_AA,False,True,False,Probably same,0,0.0,800.0,16660.0,9.720765915720834,2022-06-17 13:23:00
94,Main,1,0,3,Letter designer,True,d_DD,d_AA,False,True,False,Probably same,0,0.0,800.0,26370.0,10.179982279347332,2022-06-17 13:23:00
95,Main,1,0,4,Letter designer,True,d_AA,d_AA,False,True,True,Probably same,1,3.141592653589793,725.0,67781.0,11.124037198666844,2022-06-17 13:23:00
96,Main,1,0,5,Letter designer,True,i_AA,i_DD,False,True,False,Sure different,1,3.141592653589793,650.0,4878.0,8.492490578775866,2022-06-17 13:23:00
97,Main,1,0,6,Letter designer,True,d_BC,d_AD,True,True,False,Sure different,1,3.141592653589793,575.0,4701.0,8.45553053102413,2022-06-17 13:23:00
98,Main,1,0,7,Letter designer,True,i_BD,i_AD,True,False,False,Sure different,1,3.141592653589793,500.0,4188.0,8.339978571990427,2022-06-17 13:23:00
99,Main,1,0,8,Letter designer,True,d_AD,d_BD,True,False,False,Sure different,1,3.141592653589793,425.0,3555.0,8.176110342237342,2022-06-17 13:23:00
100,Main,1,0,9,Letter designer,True,u_AB,u_AD,True,False,True,Sure same,1,3.141592653589793,350.0,6431.0,8.768885326134862,2022-06-17 13:23:00
101,Main,1,0,10,Letter designer,True,d_AB,d_AD,True,False,True,Sure same,1,3.141592653589793,275.0,3382.0,8.126222529458525,2022-06-17 13:23:00
102,Main,1,0,11,Letter designer,True,u_AD,u_BC,True,True,False,Sure different,1,3.141592653589793,200.0,4080.0,8.313852267398207,2022-06-17 13:23:00
103,Main,1,0,12,Letter designer,True,u_AA,u_AA,False,True,True,Sure same,1,3.141592653589793,200.0,4835.0,8.483636407887394,2022-06-17 13:23:00
104,Main,1,0,13,Letter designer,True,i_BC,i_AD,True,True,False,Sure different,1,3.141592653589793,275.0,4319.0,8.3707791729607,2022-06-17 13:23:00
105,Main,1,0,14,Letter designer,True,i_AD,i_AB,True,False,True,Sure same,1,3.141592653589793,350.0,4090.0,8.316300249036848,2022-06-17 13:23:00
106,Main,1,0,15,Letter designer,True,u_AD,u_AD,True,True,True,Sure same,1,3.141592653589793,425.0,3511.0,8.163656176168432,2022-06-17 13:23:00
107,Main,1,0,16,Letter designer,True,u_DD,u_AA,False,True,False,Sure different,1,3.141592653589793,500.0,5112.0,8.53934599605737,2022-06-17 13:23:00
108,Main,1,0,17,Letter designer,True,d_AD,d_AD,True,True,True,Sure same,1,3.141592653589793,575.0,6065.0,8.71028982137815,2022-06-17 13:23:00
109,Main,1,0,18,Letter designer,True,i_AA,i_AA,False,True,True,Sure same,1,3.141592653589793,650.0,3952.0,8.281977058867758,2022-06-17 13:23:00
110,Main,1,1,1,Letter designer,True,p_AB,p_AD,True,False,True,Probably same,1,3.141592653589793,188.9,11905.0,9.384713758920963,2022-06-17 13:23:00
111,Main,1,1,2,Letter designer,True,c_AD,c_BD,True,False,False,Probably same,0,0.0,188.9,6470.0,8.774931387494947,2022-06-17 13:23:00
112,Main,1,1,3,Letter designer,True,q_AA,q_DD,False,True,False,Sure different,1,3.141592653589793,188.9,4052.0,8.306965865368573,2022-06-17 13:23:00
113,Main,1,1,4,Letter designer,True,a_BD,a_AD,True,False,False,Sure different,1,3.141592653589793,188.9,3769.0,8.234564993267135,2022-06-17 13:23:00
114,Main,1,1,5,Letter designer,True,r_BC,r_AD,True,True,False,Sure different,1,3.141592653589793,188.9,3307.0,8.103796712981794,2022-06-17 13:23:00
115,Main,1,1,6,Letter designer,True,t_BC,t_AD,True,True,False,Sure different,1,3.141592653589793,188.9,3094.0,8.037220031133012,2022-06-17 13:23:00
116,Main,1,1,7,Letter designer,True,e_AD,e_AB,True,False,True,Sure different,0,0.0,188.9,3174.0,8.062747901086354,2022-06-17 13:23:00
117,Main,1,1,8,Letter designer,True,z_BC,z_AD,True,True,False,Sure different,1,3.141592653589793,188.9,2923.0,7.980365765111246,2022-06-17 13:23:00
118,Main,1,1,9,Letter designer,True,r_AD,r_AD,True,True,True,Probably same,1,3.141592653589793,188.9,4775.0,8.471149252914831,2022-06-17 13:23:00
119,Main,1,1,10,Letter designer,True,e_AD,e_BC,True,True,False,Probably same,0,0.0,188.9,4187.0,8.339739766019143,2022-06-17 13:23:00
120,Main,1,1,11,Letter designer,True,r_AB,r_AD,True,False,True,Probably same,1,3.141592653589793,188.9,3270.0,8.0925452638913,2022-06-17 13:23:00
121,Main,1,1,12,Letter designer,True,q_AB,q_AD,True,False,True,Probably different,0,0.0,188.9,3699.0,8.215817791832453,2022-06-17 13:23:00
122,Main,1,1,13,Letter designer,True,j_AA,j_AA,False,True,True,Probably same,1,3.141592653589793,188.9,3173.0,8.062432791583195,2022-06-17 13:23:00
123,Main,1,1,14,Letter designer,True,n_AD,n_BD,True,False,False,Sure different,1,3.141592653589793,188.9,4120.0,8.323608442343572,2022-06-17 13:23:00
124,Main,1,1,15,Letter designer,True,p_BD,p_AD,True,False,False,Sure different,1,3.141592653589793,188.9,3112.0,8.043020885298283,2022-06-17 13:23:00
125,Main,1,1,16,Letter designer,True,q_BD,q_AD,True,False,False,Probably different,1,3.141592653589793,188.9,3440.0,8.143226750367445,2022-06-17 13:23:00
126,Main,1,1,17,Letter designer,True,p_BC,p_AD,True,True,False,Sure different,1,3.141592653589793,188.9,3391.0,8.128880142125638,2022-06-17 13:23:00
127,Main,1,1,18,Letter designer,True,n_BC,n_AD,True,True,False,Sure different,1,3.141592653589793,188.9,3232.0,8.080856419640986,2022-06-17 13:23:00
128,Main,1,1,19,Letter designer,True,r_AA,r_AA,False,True,True,Probably different,0,0.0,188.9,3112.0,8.043020885298283,2022-06-17 13:23:00
129,Main,1,1,20,Letter designer,True,n_AD,n_AB,True,False,True,Probably same,1,3.141592653589793,188.9,3535.0,8.170468578330674,2022-06-17 13:23:00
130,Main,1,1,21,Letter designer,True,a_BC,a_AD,True,True,False,Probably same,0,0.0,188.9,3291.0,8.098946748943339,2022-06-17 13:23:00
131,Main,1,1,22,Letter designer,True,t_AA,t_DD,False,True,False,Sure different,1,3.141592653589793,188.9,4751.0,8.46611040118692,2022-06-17 13:23:00
132,Main,1,1,23,Letter designer,True,b_AD,b_BC,True,True,False,Sure different,1,3.141592653589793,188.9,3004.0,8.007700012884026,2022-06-17 13:23:00
133,Main,1,1,24,Letter designer,True,e_AD,e_BD,True,False,False,Probably different,1,3.141592653589793,188.9,5801.0,8.665785595466064,2022-06-17 13:23:00
134,Main,1,1,25,Letter designer,True,b_DD,b_AA,False,True,False,Sure different,1,3.141592653589793,188.9,3361.0,8.119993827725105,2022-06-17 13:23:00
135,Main,1,1,26,Letter designer,True,h_AD,h_AD,True,True,True,Probably same,1,3.141592653589793,188.9,4882.0,8.493310250952906,2022-06-17 13:23:00
136,Main,1,1,27,Letter designer,True,z_AD,z_AB,True,False,True,Probably same,1,3.141592653589793,188.9,5372.0,8.588955557643128,2022-06-17 13:23:00
137,Main,1,1,28,Letter designer,True,z_AA,z_AA,False,True,True,Sure same,1,3.141592653589793,188.9,3251.0,8.086717920303906,2022-06-17 13:23:00
138,Main,1,1,29,Letter designer,True,z_BD,z_AD,True,False,False,Sure different,1,3.141592653589793,188.9,3318.0,8.10711747075039,2022-06-17 13:23:00
139,Main,1,1,30,Letter designer,True,r_AA,r_DD,False,True,False,Sure different,1,3.141592653589793,188.9,3028.0,8.01565761455734,2022-06-17 13:23:00
140,Main,1,1,31,Letter designer,True,j_AD,j_AB,True,False,True,Probably same,1,3.141592653589793,188.9,4395.0,8.388222810119277,2022-06-17 13:23:00
141,Main,1,1,32,Letter designer,True,c_AA,c_AA,False,True,True,Probably same,1,3.141592653589793,188.9,2876.0,7.964155718840937,2022-06-17 13:23:00
142,Main,1,1,33,Letter designer,True,b_AD,b_AD,True,True,True,Probably same,1,3.141592653589793,188.9,4453.0,8.401333305321703,2022-06-17 13:23:00
143,Main,1,1,34,Letter designer,True,c_DD,c_AA,False,True,False,Sure different,1,3.141592653589793,188.9,3084.0,8.03398273468322,2022-06-17 13:23:00
144,Main,1,1,35,Letter designer,True,q_AA,q_AA,False,True,True,Probably same,1,3.141592653589793,188.9,5183.0,8.553139318189707,2022-06-17 13:23:00
145,Main,1,1,36,Letter designer,True,e_AA,e_AA,False,True,True,Probably same,1,3.141592653589793,188.9,3920.0,8.273846932784508,2022-06-17 13:23:00
146,Main,1,1,37,Letter designer,True,a_DD,a_AA,False,True,False,Sure different,1,3.141592653589793,188.9,3374.0,8.123854263105914,2022-06-17 13:23:00
147,Main,1,1,38,Letter designer,True,a_AD,a_AD,True,True,True,Probably same,1,3.141592653589793,188.9,4101.0,8.31898612539206,2022-06-17 13:23:00
148,Main,1,1,39,Letter designer,True,b_AD,b_BD,True,False,False,Sure different,1,3.141592653589793,188.9,2964.0,7.994294986415977,2022-06-17 13:23:00
149,Main,1,1,40,Letter designer,True,p_AD,p_AD,True,True,True,Probably same,1,3.141592653589793,188.9,4910.0,8.499029220788566,2022-06-17 13:23:00
150,Main,1,1,41,Letter designer,True,b_AA,b_AA,False,True,True,Probably same,1,3.141592653589793,188.9,4198.0,8.342363500380579,2022-06-17 13:23:00
151,Main,1,1,42,Letter designer,True,h_AD,h_AB,True,False,True,Sure same,1,3.141592653589793,188.9,4764.0,8.46884293047519,2022-06-17 13:23:00
152,Main,1,1,43,Letter designer,True,c_AD,c_AD,True,True,True,Sure same,1,3.141592653589793,188.9,3645.0,8.201111644442758,2022-06-17 13:23:00
153,Main,1,1,44,Letter designer,True,j_AD,j_AD,True,True,True,Probably same,1,3.141592653589793,188.9,9346.0,9.142703723260372,2022-06-17 13:23:00
154,Main,1,1,45,Letter designer,True,h_AA,h_AA,False,True,True,Sure same,1,3.141592653589793,188.9,3685.0,8.212025804623437,2022-06-17 13:23:00
155,Main,1,1,46,Letter designer,True,h_AD,h_BC,True,True,False,Sure different,1,3.141592653589793,188.9,3586.0,8.184792654165078,2022-06-17 13:23:00
156,Main,1,1,47,Letter designer,True,e_AA,e_DD,False,True,False,Sure different,1,3.141592653589793,188.9,3005.0,8.008032846969307,2022-06-17 13:23:00
157,Main,1,1,48,Letter designer,True,q_AD,q_AD,True,True,True,Sure same,1,3.141592653589793,188.9,3779.0,8.237214703349489,2022-06-17 13:23:00
158,Main,1,1,49,Letter designer,True,h_AD,h_BD,True,False,False,Sure different,1,3.141592653589793,188.9,4084.0,8.314832179284556,2022-06-17 13:23:00
159,Main,1,1,50,Letter designer,True,j_AA,j_DD,False,True,False,Sure different,1,3.141592653589793,188.9,2891.0,7.969357742016346,2022-06-17 13:23:00
160,Main,1,1,51,Letter designer,True,z_DD,z_AA,False,True,False,Sure different,1,3.141592653589793,188.9,2985.0,8.001355025826703,2022-06-17 13:23:00
161,Main,1,1,52,Letter designer,True,t_AA,t_AA,False,True,True,Sure same,1,3.141592653589793,188.9,3659.0,8.204945165019208,2022-06-17 13:23:00
162,Main,1,1,53,Letter designer,True,t_BD,t_AD,True,False,False,Probably same,0,0.0,188.9,4146.0,8.329899292995725,2022-06-17 13:23:00
163,Main,1,1,54,Letter designer,True,r_AD,r_BD,True,False,False,Sure different,1,3.141592653589793,188.9,4664.0,8.447628728030327,2022-06-17 13:23:00
164,Main,1,1,55,Letter designer,True,p_AA,p_AA,False,True,True,Probably same,1,3.141592653589793,188.9,3732.0,8.224699561967235,2022-06-17 13:23:00
165,Main,1,1,56,Letter designer,True,b_AB,b_AD,True,False,True,Probably same,1,3.141592653589793,188.9,3200.0,8.070906088787819,2022-06-17 13:23:00
166,Main,1,1,57,Letter designer,True,t_AD,t_AB,True,False,True,Probably same,1,3.141592653589793,188.9,5633.0,8.636397438894713,2022-06-17 13:23:00
167,Main,1,1,58,Letter designer,True,z_AD,z_AD,True,True,True,Probably same,1,3.141592653589793,188.9,3392.0,8.129174996911793,2022-06-17 13:23:00
168,Main,1,1,59,Letter designer,True,c_AD,c_AB,True,False,True,Sure same,1,3.141592653589793,188.9,3390.0,8.128585200374497,2022-06-17 13:23:00
169,Main,1,1,60,Letter designer,True,a_AA,a_AA,False,True,True,Sure same,1,3.141592653589793,188.9,2777.0,7.9291264873067995,2022-06-17 13:23:00
170,Main,1,1,61,Letter designer,True,n_AD,n_AD,True,True,True,Sure same,1,3.141592653589793,188.9,2655.0,7.884199933676039,2022-06-17 13:23:00
171,Main,1,1,62,Letter designer,True,c_AD,c_BC,True,True,False,Probably same,0,0.0,188.9,3145.0,8.05356916913454,2022-06-17 13:23:00
172,Main,1,1,63,Letter designer,True,t_AD,t_AD,True,True,True,Probably same,1,3.141592653589793,188.9,4170.0,8.335671314792847,2022-06-17 13:23:00
173,Main,1,1,64,Letter designer,True,j_AD,j_BD,True,False,False,Sure different,1,3.141592653589793,188.9,3183.0,8.065579427282092,2022-06-17 13:23:00
174,Main,1,1,65,Letter designer,True,n_DD,n_AA,False,True,False,Sure different,1,3.141592653589793,188.9,2510.0,7.828038032125829,2022-06-17 13:23:00
175,Main,1,1,66,Letter designer,True,j_AD,j_BC,True,True,False,Sure different,1,3.141592653589793,188.9,2437.0,7.798523053625206,2022-06-17 13:23:00
176,Main,1,1,67,Letter designer,True,a_AD,a_AB,True,False,True,Probably different,0,0.0,188.9,3169.0,8.06117135969092,2022-06-17 13:23:00
177,Main,1,1,68,Letter designer,True,q_AD,q_BC,True,True,False,Probably same,0,0.0,188.9,4531.0,8.418697944667139,2022-06-17 13:23:00
178,Main,1,1,69,Letter designer,True,e_AD,e_AD,True,True,True,Probably same,1,3.141592653589793,188.9,4047.0,8.305731144875866,2022-06-17 13:23:00
179,Main,1,1,70,Letter designer,True,n_AA,n_AA,False,True,True,Sure same,1,3.141592653589793,188.9,3514.0,8.164510268747042,2022-06-17 13:23:00
180,Main,1,1,71,Letter designer,True,p_DD,p_AA,False,True,False,Sure same,0,0.0,188.9,3582.0,8.183676582620658,2022-06-17 13:23:00
181,Main,1,1,72,Letter designer,True,h_DD,h_AA,False,True,False,Sure different,1,3.141592653589793,188.9,3036.0,8.01829613851552,2022-06-17 13:23:00
182,Main,1,0,19,Letter designer,True,u_BD,u_AD,True,False,False,Sure different,1,3.141592653589793,725.0,4976.0,8.512381634419015,2022-06-17 13:23:00
183,Main,1,0,20,Letter designer,True,i_AD,i_AD,True,True,True,Sure same,1,3.141592653589793,800.0,4953.0,8.507748732588238,2022-06-17 13:23:00
184,Main,2,0,1,Graphic designer,True,d_BC,d_AD,True,True,False,Sure different,1,3.141592653589793,800.0,8670.0,9.067624069774588,2022-06-17 13:16:58
185,Main,2,0,2,Graphic designer,True,u_DD,u_AA,False,True,False,Sure different,1,3.141592653589793,800.0,8579.0,9.057072635572965,2022-06-17 13:16:58
186,Main,2,0,3,Graphic designer,True,d_DD,d_AA,False,True,False,Sure different,1,3.141592653589793,800.0,7366.0,8.904630097005011,2022-06-17 13:16:58
187,Main,2,0,4,Graphic designer,True,d_AA,d_AA,False,True,True,Probably same,1,3.141592653589793,725.0,7434.0,8.913819350857198,2022-06-17 13:16:58
188,Main,2,0,5,Graphic designer,True,i_AA,i_DD,False,True,False,Sure different,1,3.141592653589793,650.0,4499.0,8.411610428841172,2022-06-17 13:16:58
189,Main,2,0,6,Graphic designer,True,d_AD,d_BC,True,True,False,Probably different,1,3.141592653589793,575.0,9817.0,9.191870855692521,2022-06-17 13:16:58
190,Main,2,0,7,Graphic designer,True,i_AD,i_BD,True,False,False,Sure different,1,3.141592653589793,500.0,7382.0,8.906799883589944,2022-06-17 13:16:58
191,Main,2,0,8,Graphic designer,True,d_BD,d_AD,True,False,False,Sure different,1,3.141592653589793,425.0,3484.0,8.155936337972394,2022-06-17 13:16:58
192,Main,2,0,9,Graphic designer,True,u_AB,u_AD,True,False,True,Probably same,1,3.141592653589793,350.0,5833.0,8.671286726753637,2022-06-17 13:16:58
193,Main,2,0,10,Graphic designer,True,d_AD,d_AB,True,False,True,Probably different,0,0.0,275.0,12361.0,9.422301633887823,2022-06-17 13:16:58
194,Main,2,0,11,Graphic designer,True,u_BC,u_AD,True,True,False,Sure different,1,3.141592653589793,200.0,3181.0,8.064950891749143,2022-06-17 13:16:58
195,Main,2,0,12,Graphic designer,True,u_AA,u_AA,False,True,True,Sure same,1,3.141592653589793,200.0,6663.0,8.804325112562537,2022-06-17 13:16:58
196,Main,2,0,13,Graphic designer,True,i_AD,i_BC,True,True,False,Sure different,1,3.141592653589793,275.0,4398.0,8.388905171114706,2022-06-17 13:16:58
197,Main,2,0,14,Graphic designer,True,i_AD,i_AB,True,False,True,Probably same,1,3.141592653589793,350.0,5816.0,8.668368019213355,2022-06-17 13:16:58
198,Main,2,0,15,Graphic designer,True,u_AD,u_AD,True,True,True,Sure same,1,3.141592653589793,425.0,4264.0,8.357962965845681,2022-06-17 13:16:58
199,Main,2,0,16,Graphic designer,True,u_AA,u_DD,False,True,False,Sure different,1,3.141592653589793,500.0,4967.0,8.51057131510735,2022-06-17 13:16:58
200,Main,2,0,17,Graphic designer,True,d_AD,d_AD,True,True,True,Probably same,1,3.141592653589793,575.0,8016.0,8.989194823324645,2022-06-17 13:16:58
201,Main,2,0,18,Graphic designer,True,i_AA,i_AA,False,True,True,Sure same,1,3.141592653589793,650.0,4432.0,8.39660622842712,2022-06-17 13:16:58
202,Main,2,1,1,Graphic designer,True,n_AD,n_BD,True,False,False,Probably different,1,3.141592653589793,188.9,9109.0,9.11701821474481,2022-06-17 13:16:58
203,Main,2,1,2,Graphic designer,True,q_AD,q_AB,True,False,True,Probably different,0,0.0,188.9,10568.0,9.26558584620216,2022-06-17 13:16:58
204,Main,2,1,3,Graphic designer,True,c_AD,c_AD,True,True,True,Sure different,0,0.0,188.9,4049.0,8.30622521603216,2022-06-17 13:16:58
205,Main,2,1,4,Graphic designer,True,n_AA,n_DD,False,True,False,Sure different,1,3.141592653589793,188.9,3183.0,8.065579427282092,2022-06-17 13:16:58
206,Main,2,1,5,Graphic designer,True,b_BC,b_AD,True,True,False,Sure different,1,3.141592653589793,188.9,3017.0,8.012018239159062,2022-06-17 13:16:58
207,Main,2,1,6,Graphic designer,True,z_AD,z_AD,True,True,True,Probably same,1,3.141592653589793,188.9,7432.0,8.913550280493675,2022-06-17 13:16:58
208,Main,2,1,7,Graphic designer,True,b_AD,b_AB,True,False,True,Probably different,0,0.0,188.9,23284.0,10.055521708391627,2022-06-17 13:16:58
209,Main,2,1,8,Graphic designer,True,q_AD,q_BD,True,False,False,Probably different,1,3.141592653589793,188.9,4701.0,8.45553053102413,2022-06-17 13:16:58
210,Main,2,1,9,Graphic designer,True,z_AD,z_BC,True,True,False,Sure different,1,3.141592653589793,188.9,4149.0,8.330622620332868,2022-06-17 13:16:58
211,Main,2,1,10,Graphic designer,True,n_AA,n_AA,False,True,True,Sure same,1,3.141592653589793,188.9,3284.0,8.096817470572319,2022-06-17 13:16:58
212,Main,2,1,11,Graphic designer,True,a_AA,a_DD,False,True,False,Sure different,1,3.141592653589793,188.9,3549.0,8.174421152646497,2022-06-17 13:16:58
213,Main,2,1,12,Graphic designer,True,e_AD,e_BD,True,False,False,Probably same,0,0.0,188.9,4667.0,8.448271745949816,2022-06-17 13:16:58
214,Main,2,1,13,Graphic designer,True,c_AD,c_BC,True,True,False,Probably different,1,3.141592653589793,188.9,5284.0,8.572438665642215,2022-06-17 13:16:58
215,Main,2,1,14,Graphic designer,True,j_AB,j_AD,True,False,True,Probably same,1,3.141592653589793,188.9,5616.0,8.633374945705647,2022-06-17 13:16:58
216,Main,2,1,15,Graphic designer,True,h_AA,h_DD,False,True,False,Sure different,1,3.141592653589793,188.9,4534.0,8.419359831067474,2022-06-17 13:16:58
217,Main,2,1,16,Graphic designer,True,b_BD,b_AD,True,False,False,Sure different,1,3.141592653589793,188.9,2800.0,7.937374696163295,2022-06-17 13:16:58
218,Main,2,1,17,Graphic designer,True,r_AD,r_AD,True,True,True,Probably same,1,3.141592653589793,188.9,4883.0,8.49351506406166,2022-06-17 13:16:58
219,Main,2,1,18,Graphic designer,True,n_BC,n_AD,True,True,False,Sure different,1,3.141592653589793,188.9,3701.0,8.216358332386156,2022-06-17 13:16:58
220,Main,2,1,19,Graphic designer,True,a_BC,a_AD,True,True,False,Probably same,0,0.0,188.9,14350.0,9.571505221187767,2022-06-17 13:16:58
221,Main,2,1,20,Graphic designer,True,j_BD,j_AD,True,False,False,Sure different,1,3.141592653589793,188.9,6233.0,8.73761303680885,2022-06-17 13:16:58
222,Main,2,1,21,Graphic designer,True,t_AA,t_DD,False,True,False,Sure different,1,3.141592653589793,188.9,4183.0,8.338783971442199,2022-06-17 13:16:58
223,Main,2,1,22,Graphic designer,True,j_AD,j_AD,True,True,True,Sure same,1,3.141592653589793,188.9,3917.0,8.27308133366583,2022-06-17 13:16:58
224,Main,2,1,23,Graphic designer,True,r_AD,r_BC,True,True,False,Sure different,1,3.141592653589793,188.9,4050.0,8.306472160100585,2022-06-17 13:16:58
225,Main,2,1,24,Graphic designer,True,h_BD,h_AD,True,False,False,Probably different,1,3.141592653589793,188.9,6099.0,8.715880102296456,2022-06-17 13:16:58
226,Main,2,1,25,Graphic designer,True,c_DD,c_AA,False,True,False,Sure different,1,3.141592653589793,188.9,3451.0,8.146419323098003,2022-06-17 13:16:58
227,Main,2,1,26,Graphic designer,True,n_AD,n_AD,True,True,True,Sure same,1,3.141592653589793,188.9,3183.0,8.065579427282092,2022-06-17 13:16:58
228,Main,2,1,27,Graphic designer,True,p_DD,p_AA,False,True,False,Sure different,1,3.141592653589793,188.9,3266.0,8.09132127353041,2022-06-17 13:16:58
229,Main,2,1,28,Graphic designer,True,e_AA,e_DD,False,True,False,Sure different,1,3.141592653589793,188.9,2951.0,7.989899374942939,2022-06-17 13:16:58
230,Main,2,1,29,Graphic designer,True,t_AD,t_AB,True,False,True,Probably same,1,3.141592653589793,188.9,3284.0,8.096817470572319,2022-06-17 13:16:58
231,Main,2,1,30,Graphic designer,True,q_AA,q_AA,False,True,True,Sure same,1,3.141592653589793,188.9,4131.0,8.326274787396764,2022-06-17 13:16:58
232,Main,2,1,31,Graphic designer,True,h_AA,h_AA,False,True,True,Probably same,1,3.141592653589793,188.9,4903.0,8.497602541651233,2022-06-17 13:16:58
233,Main,2,1,32,Graphic designer,True,e_AD,e_AD,True,True,True,Probably same,1,3.141592653589793,188.9,3097.0,8.038189179973203,2022-06-17 13:16:58
234,Main,2,1,33,Graphic designer,True,r_AA,r_AA,False,True,True,Sure same,1,3.141592653589793,188.9,3267.0,8.09162741160107,2022-06-17 13:16:58
235,Main,2,1,34,Graphic designer,True,r_AD,r_AB,True,False,True,Sure same,1,3.141592653589793,188.9,4635.0,8.441391477999955,2022-06-17 13:16:58
236,Main,2,1,35,Graphic designer,True,t_AD,t_AD,True,True,True,Probably same,1,3.141592653589793,188.9,6983.0,8.851233902846035,2022-06-17 13:16:58
237,Main,2,1,36,Graphic designer,True,p_AD,p_AD,True,True,True,Probably same,1,3.141592653589793,188.9,3499.0,8.160232492367689,2022-06-17 13:16:58
238,Main,2,1,37,Graphic designer,True,z_AD,z_BD,True,False,False,Probably different,1,3.141592653589793,188.9,5616.0,8.633374945705647,2022-06-17 13:16:58
239,Main,2,1,38,Graphic designer,True,a_AD,a_BD,True,False,False,Probably same,0,0.0,188.9,5817.0,8.668539943910762,2022-06-17 13:16:58
240,Main,2,1,39,Graphic designer,True,j_AD,j_BC,True,True,False,Sure different,1,3.141592653589793,188.9,11367.0,9.33846969968671,2022-06-17 13:16:58
241,Main,2,1,40,Graphic designer,True,e_AB,e_AD,True,False,True,Sure same,1,3.141592653589793,188.9,3734.0,8.225235324101668,2022-06-17 13:16:58
242,Main,2,1,41,Graphic designer,True,h_BC,h_AD,True,True,False,Sure different,1,3.141592653589793,188.9,3699.0,8.215817791832453,2022-06-17 13:16:58
243,Main,2,1,42,Graphic designer,True,t_AA,t_AA,False,True,True,Sure same,1,3.141592653589793,188.9,12551.0,9.437555622660446,2022-06-17 13:16:58
244,Main,2,1,43,Graphic designer,True,q_AD,q_AD,True,True,True,Sure same,1,3.141592653589793,188.9,3800.0,8.242756345714477,2022-06-17 13:16:58
245,Main,2,1,44,Graphic designer,True,p_AD,p_BD,True,False,False,Sure different,1,3.141592653589793,188.9,4217.0,8.34687925374656,2022-06-17 13:16:58
246,Main,2,1,45,Graphic designer,True,t_BD,t_AD,True,False,False,Sure different,1,3.141592653589793,188.9,2932.0,7.983440063006542,2022-06-17 13:16:58
247,Main,2,1,46,Graphic designer,True,p_AA,p_AA,False,True,True,Sure same,1,3.141592653589793,188.9,3518.0,8.165647925297504,2022-06-17 13:16:58
248,Main,2,1,47,Graphic designer,True,b_DD,b_AA,False,True,False,Sure different,1,3.141592653589793,188.9,4115.0,8.32239411311117,2022-06-17 13:16:58
249,Main,2,1,48,Graphic designer,True,z_DD,z_AA,False,True,False,Sure different,1,3.141592653589793,188.9,2734.0,7.913521017283895,2022-06-17 13:16:58
250,Main,2,1,49,Graphic designer,True,j_AA,j_DD,False,True,False,Sure different,1,3.141592653589793,188.9,2950.0,7.989560449333865,2022-06-17 13:16:58
251,Main,2,1,50,Graphic designer,True,p_AD,p_BC,True,True,False,Sure different,1,3.141592653589793,188.9,2716.0,7.906915488678587,2022-06-17 13:16:58
252,Main,2,1,51,Graphic designer,True,z_AA,z_AA,False,True,True,Sure same,1,3.141592653589793,188.9,3417.0,8.136518252115291,2022-06-17 13:16:58
253,Main,2,1,52,Graphic designer,True,t_AD,t_BC,True,True,False,Probably same,0,0.0,188.9,5118.0,8.540519016719735,2022-06-17 13:16:58
254,Main,2,1,53,Graphic designer,True,q_AA,q_DD,False,True,False,Sure different,1,3.141592653589793,188.9,4016.0,8.298041661371565,2022-06-17 13:16:58
255,Main,2,1,54,Graphic designer,True,h_AD,h_AD,True,True,True,Probably same,1,3.141592653589793,188.9,6301.0,8.748463629942055,2022-06-17 13:16:58
256,Main,2,1,55,Graphic designer,True,r_AD,r_BD,True,False,False,Sure different,1,3.141592653589793,188.9,3399.0,8.131236549696116,2022-06-17 13:16:58
257,Main,2,1,56,Graphic designer,True,r_AA,r_DD,False,True,False,Sure different,1,3.141592653589793,188.9,2650.0,7.882314918980268,2022-06-17 13:16:58
258,Main,2,1,57,Graphic designer,True,n_AB,n_AD,True,False,True,Probably different,0,0.0,188.9,3967.0,8.28576542051433,2022-06-17 13:16:58
259,Main,2,1,58,Graphic designer,True,c_AB,c_AD,True,False,True,Probably different,0,0.0,188.9,5366.0,8.58783803098557,2022-06-17 13:16:58
260,Main,2,1,59,Graphic designer,True,q_AD,q_BC,True,True,False,Probably same,0,0.0,188.9,4933.0,8.503702601233739,2022-06-17 13:16:58
261,Main,2,1,60,Graphic designer,True,e_BC,e_AD,True,True,False,Probably same,0,0.0,188.9,8584.0,9.057655284310535,2022-06-17 13:16:58
262,Main,2,1,61,Graphic designer,True,c_AA,c_AA,False,True,True,Probably same,1,3.141592653589793,188.9,2850.0,7.955074273262696,2022-06-17 13:16:58
263,Main,2,1,62,Graphic designer,True,p_AD,p_AB,True,False,True,Probably different,0,0.0,188.9,10350.0,9.244741798693514,2022-06-17 13:16:58
264,Main,2,1,63,Graphic designer,True,h_AD,h_AB,True,False,True,Sure same,1,3.141592653589793,188.9,4134.0,8.327000740241713,2022-06-17 13:16:58
265,Main,2,1,64,Graphic designer,True,z_AB,z_AD,True,False,True,Probably same,1,3.141592653589793,188.9,3982.0,8.289539484624141,2022-06-17 13:16:58
266,Main,2,1,65,Graphic designer,True,a_AA,a_AA,False,True,True,Sure same,1,3.141592653589793,188.9,2818.0,7.943782692458625,2022-06-17 13:16:58
267,Main,2,1,66,Graphic designer,True,c_BD,c_AD,True,False,False,Probably different,1,3.141592653589793,188.9,3933.0,8.27715777243181,2022-06-17 13:16:58
268,Main,2,1,67,Graphic designer,True,a_AB,a_AD,True,False,True,Sure same,1,3.141592653589793,188.9,3567.0,8.17948018535889,2022-06-17 13:16:58
269,Main,2,1,68,Graphic designer,True,a_AD,a_AD,True,True,True,Sure same,1,3.141592653589793,188.9,3566.0,8.179199798423086,2022-06-17 13:16:58
270,Main,2,1,69,Graphic designer,True,b_AA,b_AA,False,True,True,Probably same,1,3.141592653589793,188.9,3734.0,8.225235324101668,2022-06-17 13:16:58
271,Main,2,1,70,Graphic designer,True,e_AA,e_AA,False,True,True,Sure same,1,3.141592653589793,188.9,2749.0,7.918992488165245,2022-06-17 13:16:58
272,Main,2,1,71,Graphic designer,True,j_AA,j_AA,False,True,True,Sure same,1,3.141592653589793,188.9,2934.0,7.984121958702927,2022-06-17 13:16:58
273,Main,2,1,72,Graphic designer,True,b_AD,b_AD,True,True,True,Sure same,1,3.141592653589793,188.9,2983.0,8.000684784514748,2022-06-17 13:16:58
274,Main,2,0,19,Graphic designer,True,u_AD,u_BD,True,False,False,Sure different,1,3.141592653589793,725.0,6217.0,8.735042754269337,2022-06-17 13:16:58
275,Main,2,0,20,Graphic designer,True,i_AD,i_AD,True,True,True,Sure same,1,3.141592653589793,800.0,4850.0,8.48673398393153,2022-06-17 13:16:58
276,Main,3,0,1,Letter designer,True,d_AD,d_BC,True,True,False,Sure different,1,3.141592653589793,800.0,10305.0,9.240384493324559,2022-06-17 13:13:25
277,Main,3,0,2,Letter designer,True,u_DD,u_AA,False,True,False,Sure different,1,3.141592653589793,800.0,3798.0,8.242229891372231,2022-06-17 13:13:25
278,Main,3,0,3,Letter designer,True,d_AA,d_DD,False,True,False,Sure different,1,3.141592653589793,800.0,3426.0,8.139148678884066,2022-06-17 13:13:25
279,Main,3,0,4,Letter designer,True,d_AA,d_AA,False,True,True,Probably same,1,3.141592653589793,725.0,8463.0,9.043458999670106,2022-06-17 13:13:25
280,Main,3,0,5,Letter designer,True,i_AA,i_DD,False,True,False,Sure different,1,3.141592653589793,650.0,3297.0,8.10076824307173,2022-06-17 13:13:25
281,Main,3,0,6,Letter designer,True,d_BC,d_AD,True,True,False,Sure different,1,3.141592653589793,575.0,3263.0,8.09040229659332,2022-06-17 13:13:25
282,Main,3,0,7,Letter designer,True,i_AD,i_BD,True,False,False,Sure different,1,3.141592653589793,500.0,3201.0,8.071218539969863,2022-06-17 13:13:25
283,Main,3,0,8,Letter designer,True,d_BD,d_AD,True,False,False,Sure different,1,3.141592653589793,425.0,2944.0,7.987524479848767,2022-06-17 13:13:25
284,Main,3,0,9,Letter designer,True,u_AB,u_AD,True,False,True,Sure same,1,3.141592653589793,350.0,7456.0,8.916774356365426,2022-06-17 13:13:25
285,Main,3,0,10,Letter designer,True,d_AD,d_AB,True,False,True,Sure same,1,3.141592653589793,275.0,3000.0,8.006367567650246,2022-06-17 13:13:25
286,Main,3,0,11,Letter designer,True,u_BC,u_AD,True,True,False,Probably same,0,0.0,200.0,3744.0,8.227909837597483,2022-06-17 13:13:25
287,Main,3,0,12,Letter designer,True,u_AA,u_AA,False,True,True,Sure same,1,3.141592653589793,200.0,3104.0,8.04044688130311,2022-06-17 13:13:25
288,Main,3,0,13,Letter designer,True,i_BC,i_AD,True,True,False,Sure different,1,3.141592653589793,275.0,3040.0,8.019612794400267,2022-06-17 13:13:25
289,Main,3,0,14,Letter designer,True,i_AD,i_AB,True,False,True,Sure same,1,3.141592653589793,350.0,4288.0,8.363575702750637,2022-06-17 13:13:25
290,Main,3,0,15,Letter designer,True,u_AD,u_AD,True,True,True,Sure same,1,3.141592653589793,425.0,2841.0,7.951911381854188,2022-06-17 13:13:25
291,Main,3,0,16,Letter designer,True,u_DD,u_AA,False,True,False,Sure different,1,3.141592653589793,500.0,3191.0,8.068089626278244,2022-06-17 13:13:25
292,Main,3,0,17,Letter designer,True,d_AD,d_AD,True,True,True,Sure same,1,3.141592653589793,575.0,4936.0,8.504310565585223,2022-06-17 13:13:25
293,Main,3,0,18,Letter designer,True,i_AA,i_AA,False,True,True,Sure same,1,3.141592653589793,650.0,3616.0,8.193123721512068,2022-06-17 13:13:25
294,Main,3,1,1,Letter designer,True,t_AD,t_AD,True,True,True,Probably same,1,3.141592653589793,188.9,5982.0,8.696510239189893,2022-06-17 13:13:25
295,Main,3,1,2,Letter designer,True,z_AD,z_BC,True,True,False,Sure different,1,3.141592653589793,188.9,2681.0,7.893945138235959,2022-06-17 13:13:25
296,Main,3,1,3,Letter designer,True,q_AA,q_AA,False,True,True,Probably same,1,3.141592653589793,188.9,5055.0,8.528133131454572,2022-06-17 13:13:25
297,Main,3,1,4,Letter designer,True,n_AA,n_DD,False,True,False,Sure different,1,3.141592653589793,188.9,2607.0,7.865955413933502,2022-06-17 13:13:25
298,Main,3,1,5,Letter designer,True,c_AD,c_BD,True,False,False,Probably different,1,3.141592653589793,188.9,3815.0,8.246695943718557,2022-06-17 13:13:25
299,Main,3,1,6,Letter designer,True,q_AA,q_DD,False,True,False,Sure different,1,3.141592653589793,188.9,2615.0,7.869019376499023,2022-06-17 13:13:25
300,Main,3,1,7,Letter designer,True,n_AD,n_BD,True,False,False,Sure different,1,3.141592653589793,188.9,2863.0,7.959625305098115,2022-06-17 13:13:25
301,Main,3,1,8,Letter designer,True,a_AB,a_AD,True,False,True,Sure same,1,3.141592653589793,188.9,4033.0,8.302265794873367,2022-06-17 13:13:25
302,Main,3,1,9,Letter designer,True,a_AD,a_BC,True,True,False,Sure same,0,0.0,188.9,2712.0,7.905441649060286,2022-06-17 13:13:25
303,Main,3,1,10,Letter designer,True,z_AD,z_AD,True,True,True,Sure same,1,3.141592653589793,188.9,2625.0,7.872836175025724,2022-06-17 13:13:25
304,Main,3,1,11,Letter designer,True,c_BC,c_AD,True,True,False,Probably same,0,0.0,188.9,5287.0,8.57300625623545,2022-06-17 13:13:25
305,Main,3,1,12,Letter designer,True,z_DD,z_AA,False,True,False,Sure different,1,3.141592653589793,188.9,3975.0,8.287780027088433,2022-06-17 13:13:25
306,Main,3,1,13,Letter designer,True,p_AD,p_AB,True,False,True,Probably same,1,3.141592653589793,188.9,4746.0,8.465057436995709,2022-06-17 13:13:25
307,Main,3,1,14,Letter designer,True,j_AD,j_BD,True,False,False,Sure different,1,3.141592653589793,188.9,3246.0,8.085178748074537,2022-06-17 13:13:25
308,Main,3,1,15,Letter designer,True,r_AD,r_AB,True,False,True,Probably same,1,3.141592653589793,188.9,4281.0,8.361941906144946,2022-06-17 13:13:25
309,Main,3,1,16,Letter designer,True,r_AA,r_AA,False,True,True,Sure same,1,3.141592653589793,188.9,3159.0,8.058010800802085,2022-06-17 13:13:25
310,Main,3,1,17,Letter designer,True,t_BC,t_AD,True,True,False,Probably same,0,0.0,188.9,4673.0,8.449556542700426,2022-06-17 13:13:25
311,Main,3,1,18,Letter designer,True,b_AD,b_AD,True,True,True,Sure same,1,3.141592653589793,188.9,3391.0,8.128880142125638,2022-06-17 13:13:25
312,Main,3,1,19,Letter designer,True,j_AA,j_AA,False,True,True,Sure same,1,3.141592653589793,188.9,2888.0,7.968319500012717,2022-06-17 13:13:25
313,Main,3,1,20,Letter designer,True,r_AD,r_AD,True,True,True,Sure same,1,3.141592653589793,188.9,2712.0,7.905441649060286,2022-06-17 13:13:25
314,Main,3,1,21,Letter designer,True,p_AD,p_AD,True,True,True,Sure same,1,3.141592653589793,188.9,2601.0,7.8636512654486515,2022-06-17 13:13:25
315,Main,3,1,22,Letter designer,True,r_BD,r_AD,True,False,False,Probably different,1,3.141592653589793,188.9,3944.0,8.279950715722526,2022-06-17 13:13:25
316,Main,3,1,23,Letter designer,True,b_AA,b_AA,False,True,True,Sure same,1,3.141592653589793,188.9,3520.0,8.166216268592143,2022-06-17 13:13:25
317,Main,3,1,24,Letter designer,True,r_DD,r_AA,False,True,False,Sure different,1,3.141592653589793,188.9,3088.0,8.035278911144667,2022-06-17 13:13:25
318,Main,3,1,25,Letter designer,True,e_AD,e_BC,True,True,False,Sure same,0,0.0,188.9,3336.0,8.112527763478637,2022-06-17 13:13:25
319,Main,3,1,26,Letter designer,True,n_AA,n_AA,False,True,True,Sure same,1,3.141592653589793,188.9,3448.0,8.145549631783584,2022-06-17 13:13:25
320,Main,3,1,27,Letter designer,True,b_AB,b_AD,True,False,True,Sure same,1,3.141592653589793,188.9,3280.0,8.09559870137819,2022-06-17 13:13:25
321,Main,3,1,28,Letter designer,True,n_AD,n_AB,True,False,True,Probably same,1,3.141592653589793,188.9,3120.0,8.045588280803528,2022-06-17 13:13:25
322,Main,3,1,29,Letter designer,True,a_DD,a_AA,False,True,False,Sure different,1,3.141592653589793,188.9,2945.0,7.987864096085687,2022-06-17 13:13:25
323,Main,3,1,30,Letter designer,True,h_AB,h_AD,True,False,True,Sure same,1,3.141592653589793,188.9,5135.0,8.543835122362658,2022-06-17 13:13:25
324,Main,3,1,31,Letter designer,True,n_AD,n_AD,True,True,True,Sure same,1,3.141592653589793,188.9,3414.0,8.135639903354386,2022-06-17 13:13:25
325,Main,3,1,32,Letter designer,True,t_AB,t_AD,True,False,True,Sure same,1,3.141592653589793,188.9,2978.0,7.999007213243955,2022-06-17 13:13:25
326,Main,3,1,33,Letter designer,True,q_AD,q_BD,True,False,False,Probably same,0,0.0,188.9,3312.0,8.10530751550515,2022-06-17 13:13:25
327,Main,3,1,34,Letter designer,True,j_AD,j_AB,True,False,True,Sure same,1,3.141592653589793,188.9,4505.0,8.412943170042439,2022-06-17 13:13:25
328,Main,3,1,35,Letter designer,True,b_AA,b_DD,False,True,False,Sure different,1,3.141592653589793,188.9,2903.0,7.97349996402463,2022-06-17 13:13:25
329,Main,3,1,36,Letter designer,True,z_AB,z_AD,True,False,True,Sure same,1,3.141592653589793,188.9,3128.0,8.048149101665201,2022-06-17 13:13:25
330,Main,3,1,37,Letter designer,True,j_BC,j_AD,True,True,False,Sure different,1,3.141592653589793,188.9,3521.0,8.166500319155052,2022-06-17 13:13:25
331,Main,3,1,38,Letter designer,True,a_AD,a_AD,True,True,True,Sure same,1,3.141592653589793,188.9,3231.0,8.080546965824498,2022-06-17 13:13:25
332,Main,3,1,39,Letter designer,True,e_AD,e_AD,True,True,True,Sure same,1,3.141592653589793,188.9,2522.0,7.8328075165248645,2022-06-17 13:13:25
333,Main,3,1,40,Letter designer,True,e_AA,e_AA,False,True,True,Sure same,1,3.141592653589793,188.9,2518.0,7.831220214604293,2022-06-17 13:13:25
334,Main,3,1,41,Letter designer,True,h_BD,h_AD,True,False,False,Sure different,1,3.141592653589793,188.9,3489.0,8.157370441186774,2022-06-17 13:13:25
335,Main,3,1,42,Letter designer,True,q_AD,q_AD,True,True,True,Probably same,1,3.141592653589793,188.9,3976.0,8.288031567776464,2022-06-17 13:13:25
336,Main,3,1,43,Letter designer,True,n_BC,n_AD,True,True,False,Sure different,1,3.141592653589793,188.9,2584.0,7.857093864902493,2022-06-17 13:13:25
337,Main,3,1,44,Letter designer,True,h_AA,h_DD,False,True,False,Sure different,1,3.141592653589793,188.9,3505.0,8.16194579946869,2022-06-17 13:13:25
338,Main,3,1,45,Letter designer,True,t_DD,t_AA,False,True,False,Sure different,1,3.141592653589793,188.9,2744.0,7.917171988845776,2022-06-17 13:13:25
339,Main,3,1,46,Letter designer,True,p_AA,p_AA,False,True,True,Sure same,1,3.141592653589793,188.9,3447.0,8.145259566516865,2022-06-17 13:13:25
340,Main,3,1,47,Letter designer,True,h_AA,h_AA,False,True,True,Probably same,1,3.141592653589793,188.9,4288.0,8.363575702750637,2022-06-17 13:13:25
341,Main,3,1,48,Letter designer,True,q_AB,q_AD,True,False,True,Probably same,1,3.141592653589793,188.9,3975.0,8.287780027088433,2022-06-17 13:13:25
342,Main,3,1,49,Letter designer,True,c_AA,c_AA,False,True,True,Sure same,1,3.141592653589793,188.9,3177.0,8.063692634269517,2022-06-17 13:13:25
343,Main,3,1,50,Letter designer,True,c_AD,c_AD,True,True,True,Sure same,1,3.141592653589793,188.9,2880.0,7.965545573129992,2022-06-17 13:13:25
344,Main,3,1,51,Letter designer,True,c_DD,c_AA,False,True,False,Sure different,1,3.141592653589793,188.9,2704.0,7.902487437162855,2022-06-17 13:13:25
345,Main,3,1,52,Letter designer,True,j_DD,j_AA,False,True,False,Sure different,1,3.141592653589793,188.9,2680.0,7.893572073504902,2022-06-17 13:13:25
346,Main,3,1,53,Letter designer,True,e_AA,e_DD,False,True,False,Sure different,1,3.141592653589793,188.9,3497.0,8.159660737063376,2022-06-17 13:13:25
347,Main,3,1,54,Letter designer,True,p_AD,p_BC,True,True,False,Sure different,1,3.141592653589793,188.9,2559.0,7.847371836159788,2022-06-17 13:13:25
348,Main,3,1,55,Letter designer,True,q_BC,q_AD,True,True,False,Probably different,1,3.141592653589793,188.9,3921.0,8.27410200229233,2022-06-17 13:13:25
349,Main,3,1,56,Letter designer,True,z_BD,z_AD,True,False,False,Sure different,1,3.141592653589793,188.9,2720.0,7.908387159290043,2022-06-17 13:13:25
350,Main,3,1,57,Letter designer,True,h_BC,h_AD,True,True,False,Sure different,1,3.141592653589793,188.9,3559.0,8.177234885510194,2022-06-17 13:13:25
351,Main,3,1,58,Letter designer,True,b_BC,b_AD,True,True,False,Sure different,1,3.141592653589793,188.9,2641.0,7.878912912297133,2022-06-17 13:13:25
352,Main,3,1,59,Letter designer,True,a_AA,a_AA,False,True,True,Sure same,1,3.141592653589793,188.9,5822.0,8.669399124305569,2022-06-17 13:13:25
353,Main,3,1,60,Letter designer,True,b_BD,b_AD,True,False,False,Sure different,1,3.141592653589793,188.9,2514.0,7.829630389150193,2022-06-17 13:13:25
354,Main,3,1,61,Letter designer,True,c_AB,c_AD,True,False,True,Probably same,1,3.141592653589793,188.9,4040.0,8.303999970955196,2022-06-17 13:13:25
355,Main,3,1,62,Letter designer,True,p_BD,p_AD,True,False,False,Sure different,1,3.141592653589793,188.9,4144.0,8.329416783939319,2022-06-17 13:13:25
356,Main,3,1,63,Letter designer,True,p_AA,p_DD,False,True,False,Sure different,1,3.141592653589793,188.9,3056.0,8.024862150286411,2022-06-17 13:13:25
357,Main,3,1,64,Letter designer,True,t_AA,t_AA,False,True,True,Sure same,1,3.141592653589793,188.9,3120.0,8.045588280803528,2022-06-17 13:13:25
358,Main,3,1,65,Letter designer,True,j_AD,j_AD,True,True,True,Sure same,1,3.141592653589793,188.9,2784.0,7.931644021454311,2022-06-17 13:13:25
359,Main,3,1,66,Letter designer,True,z_AA,z_AA,False,True,True,Sure same,1,3.141592653589793,188.9,3584.0,8.18423477409482,2022-06-17 13:13:25
360,Main,3,1,67,Letter designer,True,h_AD,h_AD,True,True,True,Sure same,1,3.141592653589793,188.9,2601.0,7.8636512654486515,2022-06-17 13:13:25
361,Main,3,1,68,Letter designer,True,a_AD,a_BD,True,False,False,Sure same,0,0.0,188.9,3007.0,8.008698182988528,2022-06-17 13:13:25
362,Main,3,1,69,Letter designer,True,t_BD,t_AD,True,False,False,Probably same,0,0.0,188.9,3081.0,8.033009498596668,2022-06-17 13:13:25
363,Main,3,1,70,Letter designer,True,e_AB,e_AD,True,False,True,Sure same,1,3.141592653589793,188.9,2687.0,7.8961806086154915,2022-06-17 13:13:25
364,Main,3,1,71,Letter designer,True,r_AD,r_BC,True,True,False,Sure different,1,3.141592653589793,188.9,2832.0,7.94873845481361,2022-06-17 13:13:25
365,Main,3,1,72,Letter designer,True,e_AD,e_BD,True,False,False,Sure same,0,0.0,188.9,2912.0,7.976595409316577,2022-06-17 13:13:25
366,Main,3,0,19,Letter designer,True,u_AD,u_BD,True,False,False,Sure different,1,3.141592653589793,725.0,3225.0,8.078688229229872,2022-06-17 13:13:25
367,Main,3,0,20,Letter designer,True,i_AD,i_AD,True,True,True,Sure same,1,3.141592653589793,800.0,4511.0,8.414274137408396,2022-06-17 13:13:25
368,Main,4,0,1,Typographer,True,d_AD,d_BC,True,True,False,Probably same,0,0.0,800.0,22082.0,10.002518075999083,2022-06-17 12:59:26
369,Main,4,0,2,Typographer,True,u_DD,u_AA,False,True,False,Sure different,1,3.141592653589793,800.0,4663.0,8.44741429680832,2022-06-17 12:59:26
370,Main,4,0,3,Typographer,True,d_DD,d_AA,False,True,False,Sure different,1,3.141592653589793,800.0,3901.0,8.268988209506656,2022-06-17 12:59:26
371,Main,4,0,4,Typographer,True,d_AA,d_AA,False,True,True,Probably different,0,0.0,725.0,5140.0,8.544808358449211,2022-06-17 12:59:26
372,Main,4,0,5,Typographer,True,i_DD,i_AA,False,True,False,Sure different,1,3.141592653589793,650.0,3301.0,8.101980731853192,2022-06-17 12:59:26
373,Main,4,0,6,Typographer,True,d_AD,d_BC,True,True,False,Sure different,1,3.141592653589793,575.0,3241.0,8.083637203141548,2022-06-17 12:59:26
374,Main,4,0,7,Typographer,True,i_BD,i_AD,True,False,False,Sure different,1,3.141592653589793,500.0,3808.0,8.244859395911256,2022-06-17 12:59:26
375,Main,4,0,8,Typographer,True,d_BD,d_AD,True,False,False,Sure different,1,3.141592653589793,425.0,2850.0,7.955074273262696,2022-06-17 12:59:26
376,Main,4,0,9,Typographer,True,u_AD,u_AB,True,False,True,Probably same,1,3.141592653589793,350.0,6109.0,8.717518372649767,2022-06-17 12:59:26
377,Main,4,0,10,Typographer,True,d_AD,d_AB,True,False,True,Sure same,1,3.141592653589793,275.0,3310.0,8.104703468371108,2022-06-17 12:59:26
378,Main,4,0,11,Typographer,True,u_AD,u_BC,True,True,False,Sure different,1,3.141592653589793,200.0,3492.0,8.158229916959494,2022-06-17 12:59:26
379,Main,4,0,12,Typographer,True,u_AA,u_AA,False,True,True,Probably same,1,3.141592653589793,200.0,4014.0,8.297543529356284,2022-06-17 12:59:26
380,Main,4,0,13,Typographer,True,i_AD,i_BC,True,True,False,Sure different,1,3.141592653589793,275.0,3383.0,8.12651816878071,2022-06-17 12:59:26
381,Main,4,0,14,Typographer,True,i_AB,i_AD,True,False,True,Probably different,0,0.0,350.0,4193.0,8.341171747170762,2022-06-17 12:59:26
382,Main,4,0,15,Typographer,True,u_AD,u_AD,True,True,True,Probably different,0,0.0,425.0,3700.0,8.216088098632316,2022-06-17 12:59:26
383,Main,4,0,16,Typographer,True,u_AA,u_DD,False,True,False,Sure different,1,3.141592653589793,500.0,3324.0,8.10892415597534,2022-06-17 12:59:26
384,Main,4,0,17,Typographer,True,d_AD,d_AD,True,True,True,Sure different,0,0.0,575.0,3793.0,8.2409125416889,2022-06-17 12:59:26
385,Main,4,0,18,Typographer,True,i_AA,i_AA,False,True,True,Sure different,0,0.0,650.0,3452.0,8.146709052203319,2022-06-17 12:59:26
386,Main,4,1,1,Typographer,True,h_AD,h_AD,True,True,True,Probably same,1,3.141592653589793,383.3,6674.0,8.80597465931132,2022-06-17 12:59:26
387,Main,4,1,2,Typographer,True,t_DD,t_AA,False,True,False,Sure different,1,3.141592653589793,383.3,3114.0,8.043663352393944,2022-06-17 12:59:26
388,Main,4,1,3,Typographer,True,a_AD,a_AD,True,True,True,Probably different,0,0.0,383.3,3642.0,8.200288260287554,2022-06-17 12:59:26
389,Main,4,1,4,Typographer,True,c_AD,c_AB,True,False,True,Sure same,1,3.141592653589793,383.3,3871.0,8.261268150577648,2022-06-17 12:59:26
390,Main,4,1,5,Typographer,True,r_AA,r_AA,False,True,True,Sure same,1,3.141592653589793,383.3,3234.0,8.081475040137052,2022-06-17 12:59:26
391,Main,4,1,6,Typographer,True,j_AB,j_AD,True,False,True,Probably same,1,3.141592653589793,383.3,3747.0,8.228710798793687,2022-06-17 12:59:26
392,Main,4,1,7,Typographer,True,j_AD,j_AD,True,True,True,Probably same,1,3.141592653589793,383.3,3380.0,8.125630988477065,2022-06-17 12:59:26
393,Main,4,1,8,Typographer,True,e_AD,e_AD,True,True,True,Probably same,1,3.141592653589793,383.3,3181.0,8.064950891749143,2022-06-17 12:59:26
394,Main,4,1,9,Typographer,True,r_AB,r_AD,True,False,True,Probably same,1,3.141592653589793,383.3,3119.0,8.045267716607803,2022-06-17 12:59:26
395,Main,4,1,10,Typographer,True,j_AD,j_BC,True,True,False,Sure different,1,3.141592653589793,383.3,3406.0,8.133293861222633,2022-06-17 12:59:26
396,Main,4,1,11,Typographer,True,p_BC,p_AD,True,True,False,Sure different,1,3.141592653589793,383.3,3059.0,8.025843344150903,2022-06-17 12:59:26
397,Main,4,1,12,Typographer,True,a_DD,a_AA,False,True,False,Sure different,1,3.141592653589793,383.3,2998.0,8.005700678662542,2022-06-17 12:59:26
398,Main,4,1,13,Typographer,True,n_AD,n_BD,True,False,False,Probably different,1,3.141592653589793,383.3,3734.0,8.225235324101668,2022-06-17 12:59:26
399,Main,4,1,14,Typographer,True,e_BD,e_AD,True,False,False,Probably same,0,0.0,383.3,3462.0,8.149601735736155,2022-06-17 12:59:26
400,Main,4,1,15,Typographer,True,b_DD,b_AA,False,True,False,Sure different,1,3.141592653589793,383.3,3680.0,8.210668031162976,2022-06-17 12:59:26
401,Main,4,1,16,Typographer,True,b_AD,b_BC,True,True,False,Sure different,1,3.141592653589793,383.3,2867.0,7.96102146588337,2022-06-17 12:59:26
402,Main,4,1,17,Typographer,True,z_AD,z_BC,True,True,False,Sure different,1,3.141592653589793,383.3,3124.0,8.046869510959576,2022-06-17 12:59:26
403,Main,4,1,18,Typographer,True,j_BD,j_AD,True,False,False,Sure different,1,3.141592653589793,383.3,2826.0,7.946617563244473,2022-06-17 12:59:26
404,Main,4,1,19,Typographer,True,a_BC,a_AD,True,True,False,Sure different,1,3.141592653589793,383.3,3401.0,8.131824785007195,2022-06-17 12:59:26
405,Main,4,1,20,Typographer,True,q_AD,q_BD,True,False,False,Probably same,0,0.0,383.3,3842.0,8.253748343328501,2022-06-17 12:59:26
406,Main,4,1,21,Typographer,True,e_DD,e_AA,False,True,False,Sure different,1,3.141592653589793,383.3,3582.0,8.183676582620658,2022-06-17 12:59:26
407,Main,4,1,22,Typographer,True,e_AA,e_AA,False,True,True,Sure same,1,3.141592653589793,383.3,4156.0,8.332308352219117,2022-06-17 12:59:26
408,Main,4,1,23,Typographer,True,h_BC,h_AD,True,True,False,Sure different,1,3.141592653589793,383.3,3219.0,8.076826031298808,2022-06-17 12:59:26
409,Main,4,1,24,Typographer,True,r_AD,r_AD,True,True,True,Sure same,1,3.141592653589793,383.3,6251.0,8.740496729931813,2022-06-17 12:59:26
410,Main,4,1,25,Typographer,True,e_AB,e_AD,True,False,True,Sure same,1,3.141592653589793,383.3,2889.0,7.968665700466235,2022-06-17 12:59:26
411,Main,4,1,26,Typographer,True,b_AD,b_AD,True,True,True,Probably different,0,0.0,383.3,4259.0,8.356789669923213,2022-06-17 12:59:26
412,Main,4,1,27,Typographer,True,z_AA,z_AA,False,True,True,Sure same,1,3.141592653589793,383.3,3684.0,8.211754397375197,2022-06-17 12:59:26
413,Main,4,1,28,Typographer,True,r_BD,r_AD,True,False,False,Sure different,1,3.141592653589793,383.3,3767.0,8.23403420769204,2022-06-17 12:59:26
414,Main,4,1,29,Typographer,True,a_AA,a_AA,False,True,True,Probably different,0,0.0,383.3,4040.0,8.303999970955196,2022-06-17 12:59:26
415,Main,4,1,30,Typographer,True,j_DD,j_AA,False,True,False,Sure different,1,3.141592653589793,383.3,3149.0,8.054840221101024,2022-06-17 12:59:26
416,Main,4,1,31,Typographer,True,p_AD,p_AD,True,True,True,Probably different,0,0.0,383.3,3701.0,8.216358332386156,2022-06-17 12:59:26
417,Main,4,1,32,Typographer,True,c_BD,c_AD,True,False,False,Sure different,1,3.141592653589793,383.3,2901.0,7.972810784121404,2022-06-17 12:59:26
418,Main,4,1,33,Typographer,True,n_AD,n_AD,True,True,True,Probably different,0,0.0,383.3,3233.0,8.081165777725433,2022-06-17 12:59:26
419,Main,4,1,34,Typographer,True,n_AB,n_AD,True,False,True,Sure same,1,3.141592653589793,383.3,3755.0,8.230843564198235,2022-06-17 12:59:26
420,Main,4,1,35,Typographer,True,p_DD,p_AA,False,True,False,Sure different,1,3.141592653589793,383.3,3647.0,8.20166019080868,2022-06-17 12:59:26
421,Main,4,1,36,Typographer,True,n_AA,n_AA,False,True,True,Probably same,1,3.141592653589793,383.3,5256.0,8.567125560164447,2022-06-17 12:59:26
422,Main,4,1,37,Typographer,True,c_AA,c_AA,False,True,True,Sure same,1,3.141592653589793,383.3,3170.0,8.061486866871327,2022-06-17 12:59:26
423,Main,4,1,38,Typographer,True,a_AB,a_AD,True,False,True,Sure same,1,3.141592653589793,383.3,2949.0,7.989221408815276,2022-06-17 12:59:26
424,Main,4,1,39,Typographer,True,q_AD,q_BC,True,True,False,Sure different,1,3.141592653589793,383.3,4634.0,8.441175704992322,2022-06-17 12:59:26
425,Main,4,1,40,Typographer,True,a_BD,a_AD,True,False,False,Sure different,1,3.141592653589793,383.3,3315.0,8.106212902619962,2022-06-17 12:59:26
426,Main,4,1,41,Typographer,True,b_AA,b_AA,False,True,True,Sure same,1,3.141592653589793,383.3,4024.0,8.300031711779575,2022-06-17 12:59:26
427,Main,4,1,42,Typographer,True,b_AB,b_AD,True,False,True,Sure same,1,3.141592653589793,383.3,3285.0,8.09712193091871,2022-06-17 12:59:26
428,Main,4,1,43,Typographer,True,r_DD,r_AA,False,True,False,Sure different,1,3.141592653589793,383.3,3089.0,8.035602692918582,2022-06-17 12:59:26
429,Main,4,1,44,Typographer,True,p_AA,p_AA,False,True,True,Sure same,1,3.141592653589793,383.3,3577.0,8.182279739259018,2022-06-17 12:59:26
430,Main,4,1,45,Typographer,True,c_AD,c_AD,True,True,True,Sure same,1,3.141592653589793,383.3,2933.0,7.983781068977451,2022-06-17 12:59:26
431,Main,4,1,46,Typographer,True,z_AD,z_AD,True,True,True,Sure same,1,3.141592653589793,383.3,2691.0,7.897668150726906,2022-06-17 12:59:26
432,Main,4,1,47,Typographer,True,c_BC,c_AD,True,True,False,Sure different,1,3.141592653589793,383.3,3458.0,8.148445666243235,2022-06-17 12:59:26
433,Main,4,1,48,Typographer,True,e_BC,e_AD,True,True,False,Sure same,0,0.0,383.3,3684.0,8.211754397375197,2022-06-17 12:59:26
434,Main,4,1,49,Typographer,True,h_AD,h_AB,True,False,True,Sure same,1,3.141592653589793,383.3,4204.0,8.343791731996841,2022-06-17 12:59:26
435,Main,4,1,50,Typographer,True,n_DD,n_AA,False,True,False,Sure different,1,3.141592653589793,383.3,5403.0,8.594709633844065,2022-06-17 12:59:26
436,Main,4,1,51,Typographer,True,h_AA,h_DD,False,True,False,Sure different,1,3.141592653589793,383.3,3219.0,8.076826031298808,2022-06-17 12:59:26
437,Main,4,1,52,Typographer,True,p_AD,p_BD,True,False,False,Sure different,1,3.141592653589793,383.3,3608.0,8.190908881182514,2022-06-17 12:59:26
438,Main,4,1,53,Typographer,True,h_AA,h_AA,False,True,True,Sure same,1,3.141592653589793,383.3,3320.0,8.107720061910534,2022-06-17 12:59:26
439,Main,4,1,54,Typographer,True,z_AA,z_DD,False,True,False,Sure different,1,3.141592653589793,383.3,3569.0,8.18004072349016,2022-06-17 12:59:26
440,Main,4,1,55,Typographer,True,q_AA,q_AA,False,True,True,Probably same,1,3.141592653589793,383.3,4136.0,8.327484416188264,2022-06-17 12:59:26
441,Main,4,1,56,Typographer,True,r_AD,r_BC,True,True,False,Probably different,1,3.141592653589793,383.3,4423.0,8.394573477868327,2022-06-17 12:59:26
442,Main,4,1,57,Typographer,True,c_DD,c_AA,False,True,False,Sure different,1,3.141592653589793,383.3,3645.0,8.201111644442758,2022-06-17 12:59:26
443,Main,4,1,58,Typographer,True,t_AB,t_AD,True,False,True,Sure same,1,3.141592653589793,383.3,3936.0,8.277920258172143,2022-06-17 12:59:26
444,Main,4,1,59,Typographer,True,z_BD,z_AD,True,False,False,Sure different,1,3.141592653589793,383.3,3010.0,8.009695357742922,2022-06-17 12:59:26
445,Main,4,1,60,Typographer,True,h_AD,h_BD,True,False,False,Sure different,1,3.141592653589793,383.3,3162.0,8.058960017769417,2022-06-17 12:59:26
446,Main,4,1,61,Typographer,True,q_DD,q_AA,False,True,False,Sure different,1,3.141592653589793,383.3,3046.0,8.021584533455107,2022-06-17 12:59:26
447,Main,4,1,62,Typographer,True,t_AA,t_AA,False,True,True,Sure different,0,0.0,383.3,3334.0,8.111928063310739,2022-06-17 12:59:26
448,Main,4,1,63,Typographer,True,b_AD,b_BD,True,False,False,Sure different,1,3.141592653589793,383.3,2951.0,7.989899374942939,2022-06-17 12:59:26
449,Main,4,1,64,Typographer,True,p_AD,p_AB,True,False,True,Sure different,0,0.0,383.3,3358.0,8.119100837637486,2022-06-17 12:59:26
450,Main,4,1,65,Typographer,True,q_AD,q_AD,True,True,True,Sure same,1,3.141592653589793,383.3,3382.0,8.126222529458525,2022-06-17 12:59:26
451,Main,4,1,66,Typographer,True,z_AB,z_AD,True,False,True,Sure same,1,3.141592653589793,383.3,2704.0,7.902487437162855,2022-06-17 12:59:26
452,Main,4,1,67,Typographer,True,q_AB,q_AD,True,False,True,Sure same,1,3.141592653589793,383.3,2699.0,7.900636613018005,2022-06-17 12:59:26
453,Main,4,1,68,Typographer,True,t_BD,t_AD,True,False,False,Sure same,0,0.0,383.3,2866.0,7.960672608388117,2022-06-17 12:59:26
454,Main,4,1,69,Typographer,True,j_AA,j_AA,False,True,True,Probably same,1,3.141592653589793,383.3,3450.0,8.146129510025405,2022-06-17 12:59:26
455,Main,4,1,70,Typographer,True,t_AD,t_AD,True,True,True,Sure different,0,0.0,383.3,3886.0,8.265135629937385,2022-06-17 12:59:26
456,Main,4,1,71,Typographer,True,n_BC,n_AD,True,True,False,Sure different,1,3.141592653589793,383.3,3150.0,8.055157731819678,2022-06-17 12:59:26
457,Main,4,1,72,Typographer,True,t_AD,t_BC,True,True,False,Probably different,1,3.141592653589793,383.3,3311.0,8.105005537547246,2022-06-17 12:59:26
458,Main,4,0,19,Typographer,True,u_BD,u_AD,True,False,False,Sure different,1,3.141592653589793,725.0,3346.0,8.11552088154677,2022-06-17 12:59:26
459,Main,4,0,20,Typographer,True,i_AD,i_AD,True,True,True,Probably different,0,0.0,800.0,3827.0,8.249836485425702,2022-06-17 12:59:26
460,Main,5,0,1,Letter designer,True,d_AD,d_BC,True,True,False,Probably different,1,3.141592653589793,800.0,17715.0,9.782167017299573,2022-06-16 18:13:36
461,Main,5,0,2,Letter designer,True,u_DD,u_AA,False,True,False,Sure different,1,3.141592653589793,800.0,11984.0,9.391327705757,2022-06-16 18:13:36
462,Main,5,0,3,Letter designer,True,d_DD,d_AA,False,True,False,Sure different,1,3.141592653589793,800.0,4588.0,8.431199478249262,2022-06-16 18:13:36
463,Main,5,0,4,Letter designer,True,d_AA,d_AA,False,True,True,Sure different,0,0.0,725.0,4128.0,8.325548307161398,2022-06-16 18:13:36
464,Main,5,0,5,Letter designer,True,i_DD,i_AA,False,True,False,Sure different,1,3.141592653589793,650.0,3799.0,8.242493153187626,2022-06-16 18:13:36
465,Main,5,0,6,Letter designer,True,d_BC,d_AD,True,True,False,Probably same,0,0.0,575.0,4589.0,8.431417414394833,2022-06-16 18:13:36
466,Main,5,0,7,Letter designer,True,i_AD,i_BD,True,False,False,Sure different,1,3.141592653589793,500.0,3780.0,8.237479288613633,2022-06-16 18:13:36
467,Main,5,0,8,Letter designer,True,d_BD,d_AD,True,False,False,Sure different,1,3.141592653589793,425.0,5846.0,8.673512945671192,2022-06-16 18:13:36
468,Main,5,0,9,Letter designer,True,u_AD,u_AB,True,False,True,Sure different,0,0.0,350.0,3091.0,8.036249942132116,2022-06-16 18:13:36
469,Main,5,0,10,Letter designer,True,d_AB,d_AD,True,False,True,Sure different,0,0.0,275.0,6001.0,8.699681400989514,2022-06-16 18:13:36
470,Main,5,0,11,Letter designer,True,u_BC,u_AD,True,True,False,Sure different,1,3.141592653589793,200.0,2760.0,7.9229859587111955,2022-06-16 18:13:36
471,Main,5,0,12,Letter designer,True,u_AA,u_AA,False,True,True,Sure different,0,0.0,200.0,4232.0,8.350429973538136,2022-06-16 18:13:36
472,Main,5,0,13,Letter designer,True,i_BC,i_AD,True,True,False,Sure different,1,3.141592653589793,275.0,2679.0,7.893198869544609,2022-06-16 18:13:36
473,Main,5,0,14,Letter designer,True,i_AD,i_AB,True,False,True,Sure different,0,0.0,350.0,17256.0,9.755915188068993,2022-06-16 18:13:36
474,Main,5,0,15,Letter designer,True,u_AD,u_AD,True,True,True,Sure different,0,0.0,425.0,3529.0,8.16876982367527,2022-06-16 18:13:36
475,Main,5,0,16,Letter designer,True,u_DD,u_AA,False,True,False,Sure different,1,3.141592653589793,500.0,4919.0,8.50086053679534,2022-06-16 18:13:36
476,Main,5,0,17,Letter designer,True,d_AD,d_AD,True,True,True,Sure same,1,3.141592653589793,575.0,7804.0,8.962391701743002,2022-06-16 18:13:36
477,Main,5,0,18,Letter designer,True,i_AA,i_AA,False,True,True,Sure same,1,3.141592653589793,650.0,3514.0,8.164510268747042,2022-06-16 18:13:36
478,Main,5,1,1,Letter designer,True,e_AD,e_BC,True,True,False,Probably same,0,0.0,422.2,8452.0,9.042158378735948,2022-06-16 18:13:36
479,Main,5,1,2,Letter designer,True,b_AA,b_DD,False,True,False,Sure different,1,3.141592653589793,422.2,3803.0,8.24354550792826,2022-06-16 18:13:36
480,Main,5,1,3,Letter designer,True,q_AD,q_AB,True,False,True,Sure same,1,3.141592653589793,422.2,3547.0,8.173857454773621,2022-06-16 18:13:36
481,Main,5,1,4,Letter designer,True,q_AD,q_AD,True,True,True,Sure same,1,3.141592653589793,422.2,3225.0,8.078688229229872,2022-06-16 18:13:36
482,Main,5,1,5,Letter designer,True,b_AD,b_AB,True,False,True,Sure same,1,3.141592653589793,422.2,3164.0,8.059592328887545,2022-06-16 18:13:36
483,Main,5,1,6,Letter designer,True,z_AD,z_AB,True,False,True,Sure different,0,0.0,422.2,4055.0,8.307705966549513,2022-06-16 18:13:36
484,Main,5,1,7,Letter designer,True,t_AA,t_DD,False,True,False,Sure different,1,3.141592653589793,422.2,3065.0,8.027802848370312,2022-06-16 18:13:36
485,Main,5,1,8,Letter designer,True,p_DD,p_AA,False,True,False,Sure different,1,3.141592653589793,422.2,3348.0,8.116118431609365,2022-06-16 18:13:36
486,Main,5,1,9,Letter designer,True,j_AA,j_DD,False,True,False,Sure different,1,3.141592653589793,422.2,3127.0,8.047829357457841,2022-06-16 18:13:36
487,Main,5,1,10,Letter designer,True,b_AD,b_AD,True,True,True,Sure different,0,0.0,422.2,5020.0,8.521185212685776,2022-06-16 18:13:36
488,Main,5,1,11,Letter designer,True,p_AB,p_AD,True,False,True,Probably same,1,3.141592653589793,422.2,4837.0,8.484049972822984,2022-06-16 18:13:36
489,Main,5,1,12,Letter designer,True,j_AD,j_AD,True,True,True,Sure same,1,3.141592653589793,422.2,3335.0,8.112227958349724,2022-06-16 18:13:36
490,Main,5,1,13,Letter designer,True,j_AD,j_BD,True,False,False,Sure different,1,3.141592653589793,422.2,3245.0,8.08487062913819,2022-06-16 18:13:36
491,Main,5,1,14,Letter designer,True,t_AB,t_AD,True,False,True,Sure same,1,3.141592653589793,422.2,3388.0,8.127995055771946,2022-06-16 18:13:36
492,Main,5,1,15,Letter designer,True,c_BD,c_AD,True,False,False,Probably same,0,0.0,422.2,4018.0,8.29853954537488,2022-06-16 18:13:36
493,Main,5,1,16,Letter designer,True,p_AD,p_AD,True,True,True,Probably different,0,0.0,422.2,4298.0,8.365905077202456,2022-06-16 18:13:36
494,Main,5,1,17,Letter designer,True,b_AD,b_BC,True,True,False,Sure different,1,3.141592653589793,422.2,3241.0,8.083637203141548,2022-06-16 18:13:36
495,Main,5,1,18,Letter designer,True,c_AA,c_DD,False,True,False,Sure different,1,3.141592653589793,422.2,2985.0,8.001355025826703,2022-06-16 18:13:36
496,Main,5,1,19,Letter designer,True,n_AD,n_AD,True,True,True,Probably same,1,3.141592653589793,422.2,4794.0,8.475120414994329,2022-06-16 18:13:36
497,Main,5,1,20,Letter designer,True,z_AD,z_AD,True,True,True,Probably same,1,3.141592653589793,422.2,3844.0,8.254268770090183,2022-06-16 18:13:36
498,Main,5,1,21,Letter designer,True,z_BC,z_AD,True,True,False,Sure different,1,3.141592653589793,422.2,4111.0,8.321421586897879,2022-06-16 18:13:36
499,Main,5,1,22,Letter designer,True,h_BC,h_AD,True,True,False,Sure different,1,3.141592653589793,422.2,3089.0,8.035602692918582,2022-06-16 18:13:36
500,Main,5,1,23,Letter designer,True,z_AA,z_AA,False,True,True,Sure same,1,3.141592653589793,422.2,3785.0,8.23880116587155,2022-06-16 18:13:36
501,Main,5,1,24,Letter designer,True,p_AA,p_AA,False,True,True,Probably same,1,3.141592653589793,422.2,5123.0,8.541495483939203,2022-06-16 18:13:36
502,Main,5,1,25,Letter designer,True,z_DD,z_AA,False,True,False,Sure different,1,3.141592653589793,422.2,2991.0,8.003363058629947,2022-06-16 18:13:36
503,Main,5,1,26,Letter designer,True,a_AD,a_AB,True,False,True,Probably same,1,3.141592653589793,422.2,4748.0,8.465478755729558,2022-06-16 18:13:36
504,Main,5,1,27,Letter designer,True,h_AB,h_AD,True,False,True,Sure same,1,3.141592653589793,422.2,3724.0,8.222553638396958,2022-06-16 18:13:36
505,Main,5,1,28,Letter designer,True,h_AA,h_DD,False,True,False,Sure different,1,3.141592653589793,422.2,3577.0,8.182279739259018,2022-06-16 18:13:36
506,Main,5,1,29,Letter designer,True,a_AA,a_DD,False,True,False,Sure different,1,3.141592653589793,422.2,3039.0,8.019283792916793,2022-06-16 18:13:36
507,Main,5,1,30,Letter designer,True,c_AD,c_AD,True,True,True,Sure same,1,3.141592653589793,422.2,3736.0,8.225770799348734,2022-06-16 18:13:36
508,Main,5,1,31,Letter designer,True,j_AA,j_AA,False,True,True,Sure same,1,3.141592653589793,422.2,3009.0,8.009363076630045,2022-06-16 18:13:36
509,Main,5,1,32,Letter designer,True,t_AA,t_AA,False,True,True,Sure same,1,3.141592653589793,422.2,3253.0,8.087332926473351,2022-06-16 18:13:36
510,Main,5,1,33,Letter designer,True,n_AA,n_DD,False,True,False,Sure different,1,3.141592653589793,422.2,3157.0,8.057377488557991,2022-06-16 18:13:36
511,Main,5,1,34,Letter designer,True,e_AA,e_DD,False,True,False,Sure different,1,3.141592653589793,422.2,3353.0,8.117610746466228,2022-06-16 18:13:36
512,Main,5,1,35,Letter designer,True,h_AD,h_AD,True,True,True,Probably different,0,0.0,422.2,4375.0,8.383661798791715,2022-06-16 18:13:36
513,Main,5,1,36,Letter designer,True,a_BD,a_AD,True,False,False,Probably same,0,0.0,422.2,3842.0,8.253748343328501,2022-06-16 18:13:36
514,Main,5,1,37,Letter designer,True,r_DD,r_AA,False,True,False,Sure different,1,3.141592653589793,422.2,2988.0,8.002359546252707,2022-06-16 18:13:36
515,Main,5,1,38,Letter designer,True,e_AB,e_AD,True,False,True,Sure same,1,3.141592653589793,422.2,3795.0,8.24143968982973,2022-06-16 18:13:36
516,Main,5,1,39,Letter designer,True,r_AA,r_AA,False,True,True,Sure same,1,3.141592653589793,422.2,2970.0,7.996317231796746,2022-06-16 18:13:36
517,Main,5,1,40,Letter designer,True,t_AD,t_AD,True,True,True,Sure same,1,3.141592653589793,422.2,3008.0,8.00903068506973,2022-06-16 18:13:36
518,Main,5,1,41,Letter designer,True,p_AD,p_BD,True,False,False,Sure same,0,0.0,422.2,2862.0,7.959275960116396,2022-06-16 18:13:36
519,Main,5,1,42,Letter designer,True,a_BC,a_AD,True,True,False,Probably same,0,0.0,422.2,5716.0,8.651024539049757,2022-06-16 18:13:36
520,Main,5,1,43,Letter designer,True,q_AA,q_AA,False,True,True,Sure same,1,3.141592653589793,422.2,5284.0,8.572438665642215,2022-06-16 18:13:36
521,Main,5,1,44,Letter designer,True,t_BD,t_AD,True,False,False,Sure same,0,0.0,422.2,3024.0,8.014335737299424,2022-06-16 18:13:36
522,Main,5,1,45,Letter designer,True,r_BD,r_AD,True,False,False,Sure different,1,3.141592653589793,422.2,3628.0,8.196436811235028,2022-06-16 18:13:36
523,Main,5,1,46,Letter designer,True,b_BD,b_AD,True,False,False,Sure different,1,3.141592653589793,422.2,2931.0,7.983098940710892,2022-06-16 18:13:36
524,Main,5,1,47,Letter designer,True,j_BC,j_AD,True,True,False,Sure different,1,3.141592653589793,422.2,2872.0,7.962763930168115,2022-06-16 18:13:36
525,Main,5,1,48,Letter designer,True,a_AD,a_AD,True,True,True,Sure different,0,0.0,422.2,3828.0,8.250097752572845,2022-06-16 18:13:36
526,Main,5,1,49,Letter designer,True,q_AA,q_DD,False,True,False,Sure different,1,3.141592653589793,422.2,3030.0,8.016317898503415,2022-06-16 18:13:36
527,Main,5,1,50,Letter designer,True,p_AD,p_BC,True,True,False,Sure different,1,3.141592653589793,422.2,4168.0,8.335191583433202,2022-06-16 18:13:36
528,Main,5,1,51,Letter designer,True,e_AD,e_BD,True,False,False,Sure same,0,0.0,422.2,3312.0,8.10530751550515,2022-06-16 18:13:36
529,Main,5,1,52,Letter designer,True,a_AA,a_AA,False,True,True,Sure same,1,3.141592653589793,422.2,2922.0,7.980023592310645,2022-06-16 18:13:36
530,Main,5,1,53,Letter designer,True,r_BC,r_AD,True,True,False,Sure different,1,3.141592653589793,422.2,3413.0,8.135346948906706,2022-06-16 18:13:36
531,Main,5,1,54,Letter designer,True,q_BD,q_AD,True,False,False,Sure same,0,0.0,422.2,3040.0,8.019612794400267,2022-06-16 18:13:36
532,Main,5,1,55,Letter designer,True,n_AA,n_AA,False,True,True,Sure same,1,3.141592653589793,422.2,3260.0,8.089482474360754,2022-06-16 18:13:36
533,Main,5,1,56,Letter designer,True,n_AD,n_BC,True,True,False,Sure different,1,3.141592653589793,422.2,3291.0,8.098946748943339,2022-06-16 18:13:36
534,Main,5,1,57,Letter designer,True,c_AD,c_AB,True,False,True,Sure different,0,0.0,422.2,3310.0,8.104703468371108,2022-06-16 18:13:36
535,Main,5,1,58,Letter designer,True,h_AA,h_AA,False,True,True,Probably same,1,3.141592653589793,422.2,4677.0,8.450412157725886,2022-06-16 18:13:36
536,Main,5,1,59,Letter designer,True,r_AD,r_AB,True,False,True,Sure different,0,0.0,422.2,3935.0,8.277666160851503,2022-06-16 18:13:36
537,Main,5,1,60,Letter designer,True,t_AD,t_BC,True,True,False,Probably same,0,0.0,422.2,3422.0,8.137980454452139,2022-06-16 18:13:36
538,Main,5,1,61,Letter designer,True,r_AD,r_AD,True,True,True,Sure different,0,0.0,422.2,3244.0,8.084562415235304,2022-06-16 18:13:36
539,Main,5,1,62,Letter designer,True,c_AA,c_AA,False,True,True,Sure same,1,3.141592653589793,422.2,3062.0,8.026823576217629,2022-06-16 18:13:36
540,Main,5,1,63,Letter designer,True,q_BC,q_AD,True,True,False,Sure same,0,0.0,422.2,3887.0,8.265392930852224,2022-06-16 18:13:36
541,Main,5,1,64,Letter designer,True,c_BC,c_AD,True,True,False,Sure different,1,3.141592653589793,422.2,3525.0,8.16763571524637,2022-06-16 18:13:36
542,Main,5,1,65,Letter designer,True,e_AA,e_AA,False,True,True,Sure same,1,3.141592653589793,422.2,3224.0,8.07837810362652,2022-06-16 18:13:36
543,Main,5,1,66,Letter designer,True,j_AD,j_AB,True,False,True,Sure same,1,3.141592653589793,422.2,3888.0,8.265650165580329,2022-06-16 18:13:36
544,Main,5,1,67,Letter designer,True,h_BD,h_AD,True,False,False,Sure different,1,3.141592653589793,422.2,3073.0,8.030409562130485,2022-06-16 18:13:36
545,Main,5,1,68,Letter designer,True,n_AD,n_BD,True,False,False,Sure different,1,3.141592653589793,422.2,3252.0,8.087025470667701,2022-06-16 18:13:36
546,Main,5,1,69,Letter designer,True,b_AA,b_AA,False,True,True,Sure same,1,3.141592653589793,422.2,3233.0,8.081165777725433,2022-06-16 18:13:36
547,Main,5,1,70,Letter designer,True,z_BD,z_AD,True,False,False,Sure different,1,3.141592653589793,422.2,3176.0,8.063377822367027,2022-06-16 18:13:36
548,Main,5,1,71,Letter designer,True,e_AD,e_AD,True,True,True,Probably same,1,3.141592653589793,422.2,3494.0,8.158802490694002,2022-06-16 18:13:36
549,Main,5,1,72,Letter designer,True,n_AD,n_AB,True,False,True,Probably same,1,3.141592653589793,422.2,5361.0,8.586905803827538,2022-06-16 18:13:36
550,Main,5,0,19,Letter designer,True,u_BD,u_AD,True,False,False,Sure different,1,3.141592653589793,725.0,3299.0,8.101374671228582,2022-06-16 18:13:36
551,Main,5,0,20,Letter designer,True,i_AD,i_AD,True,True,True,Probably same,1,3.141592653589793,800.0,8345.0,9.029417836095936,2022-06-16 18:13:36
552,Main,6,0,1,Graphic designer,True,d_BC,d_AD,True,True,False,Probably same,0,0.0,800.0,13900.0,9.539644119118783,2022-06-16 13:04:57
553,Main,6,0,2,Graphic designer,True,u_DD,u_AA,False,True,False,Probably same,0,0.0,800.0,5256.0,8.567125560164447,2022-06-16 13:04:57
554,Main,6,0,3,Graphic designer,True,d_AA,d_DD,False,True,False,Probably same,0,0.0,800.0,4236.0,8.351374706721296,2022-06-16 13:04:57
555,Main,6,0,4,Graphic designer,True,d_AA,d_AA,False,True,True,Probably same,1,3.141592653589793,725.0,4617.0,8.43750042250699,2022-06-16 13:04:57
556,Main,6,0,5,Graphic designer,True,i_DD,i_AA,False,True,False,Sure different,1,3.141592653589793,650.0,5234.0,8.562931083090092,2022-06-16 13:04:57
557,Main,6,0,6,Graphic designer,True,d_AD,d_BC,True,True,False,Probably different,1,3.141592653589793,575.0,7550.0,8.92930284224307,2022-06-16 13:04:57
558,Main,6,0,7,Graphic designer,True,i_BD,i_AD,True,False,False,Sure same,0,0.0,500.0,4102.0,8.319229938632326,2022-06-16 13:04:57
559,Main,6,0,8,Graphic designer,True,d_AD,d_BD,True,False,False,Sure same,0,0.0,425.0,3401.0,8.131824785007195,2022-06-16 13:04:57
560,Main,6,0,9,Graphic designer,True,u_AB,u_AD,True,False,True,Sure same,1,3.141592653589793,350.0,2996.0,8.005033344637111,2022-06-16 13:04:57
561,Main,6,0,10,Graphic designer,True,d_AB,d_AD,True,False,True,Sure same,1,3.141592653589793,275.0,3508.0,8.162801353492073,2022-06-16 13:04:57
562,Main,6,0,11,Graphic designer,True,u_BC,u_AD,True,True,False,Sure same,0,0.0,200.0,7315.0,8.897682313454224,2022-06-16 13:04:57
563,Main,6,0,12,Graphic designer,True,u_AA,u_AA,False,True,True,Sure same,1,3.141592653589793,200.0,2732.0,7.912789220690681,2022-06-16 13:04:57
564,Main,6,0,13,Graphic designer,True,i_AD,i_BC,True,True,False,Sure same,0,0.0,275.0,2934.0,7.984121958702927,2022-06-16 13:04:57
565,Main,6,0,14,Graphic designer,True,i_AB,i_AD,True,False,True,Sure same,1,3.141592653589793,350.0,3039.0,8.019283792916793,2022-06-16 13:04:57
566,Main,6,0,15,Graphic designer,True,u_AD,u_AD,True,True,True,Sure same,1,3.141592653589793,425.0,3062.0,8.026823576217629,2022-06-16 13:04:57
567,Main,6,0,16,Graphic designer,True,u_AA,u_DD,False,True,False,Sure different,1,3.141592653589793,500.0,3667.0,8.207129168071326,2022-06-16 13:04:57
568,Main,6,0,17,Graphic designer,True,d_AD,d_AD,True,True,True,Sure same,1,3.141592653589793,575.0,3375.0,8.12415060330663,2022-06-16 13:04:57
569,Main,6,0,18,Graphic designer,True,i_AA,i_AA,False,True,True,Sure same,1,3.141592653589793,650.0,3624.0,8.19533366716287,2022-06-16 13:04:57
570,Main,6,1,1,Graphic designer,True,b_AD,b_AD,True,True,True,Sure same,1,3.141592653589793,383.3,5309.0,8.57715877258367,2022-06-16 13:04:57
571,Main,6,1,2,Graphic designer,True,e_AB,e_AD,True,False,True,Sure same,1,3.141592653589793,383.3,6066.0,8.710454688248527,2022-06-16 13:04:57
572,Main,6,1,3,Graphic designer,True,q_AD,q_BD,True,False,False,Sure same,0,0.0,383.3,3005.0,8.008032846969307,2022-06-16 13:04:57
573,Main,6,1,4,Graphic designer,True,p_AA,p_DD,False,True,False,Sure same,0,0.0,383.3,2786.0,7.932362154339751,2022-06-16 13:04:57
574,Main,6,1,5,Graphic designer,True,b_AB,b_AD,True,False,True,Sure same,1,3.141592653589793,383.3,2610.0,7.867105500316739,2022-06-16 13:04:57
575,Main,6,1,6,Graphic designer,True,p_AA,p_AA,False,True,True,Sure same,1,3.141592653589793,383.3,3455.0,8.14757773620177,2022-06-16 13:04:57
576,Main,6,1,7,Graphic designer,True,p_BC,p_AD,True,True,False,Sure same,0,0.0,383.3,3023.0,8.014004994779459,2022-06-16 13:04:57
577,Main,6,1,8,Graphic designer,True,z_AB,z_AD,True,False,True,Sure same,1,3.141592653589793,383.3,3171.0,8.061802274538348,2022-06-16 13:04:57
578,Main,6,1,9,Graphic designer,True,n_BD,n_AD,True,False,False,Sure same,0,0.0,383.3,2774.0,7.928045600874777,2022-06-16 13:04:57
579,Main,6,1,10,Graphic designer,True,b_AA,b_AA,False,True,True,Sure same,1,3.141592653589793,383.3,3032.0,8.016977746762262,2022-06-16 13:04:57
580,Main,6,1,11,Graphic designer,True,h_AA,h_AA,False,True,True,Sure same,1,3.141592653589793,383.3,3284.0,8.096817470572319,2022-06-16 13:04:57
581,Main,6,1,12,Graphic designer,True,j_AB,j_AD,True,False,True,Sure same,1,3.141592653589793,383.3,3053.0,8.023879992734878,2022-06-16 13:04:57
582,Main,6,1,13,Graphic designer,True,n_AB,n_AD,True,False,True,Sure same,1,3.141592653589793,383.3,2937.0,7.98514393119862,2022-06-16 13:04:57
583,Main,6,1,14,Graphic designer,True,n_BC,n_AD,True,True,False,Sure same,0,0.0,383.3,2991.0,8.003363058629947,2022-06-16 13:04:57
584,Main,6,1,15,Graphic designer,True,j_AD,j_AD,True,True,True,Sure same,1,3.141592653589793,383.3,2879.0,7.965198290612176,2022-06-16 13:04:57
585,Main,6,1,16,Graphic designer,True,z_AD,z_AD,True,True,True,Sure same,1,3.141592653589793,383.3,2662.0,7.8868329989550565,2022-06-16 13:04:57
586,Main,6,1,17,Graphic designer,True,c_AB,c_AD,True,False,True,Sure same,1,3.141592653589793,383.3,2785.0,7.932003152361385,2022-06-16 13:04:57
587,Main,6,1,18,Graphic designer,True,t_AD,t_AD,True,True,True,Sure same,1,3.141592653589793,383.3,2515.0,7.83002808253384,2022-06-16 13:04:57
588,Main,6,1,19,Graphic designer,True,p_AD,p_AD,True,True,True,Probably same,1,3.141592653589793,383.3,3841.0,8.253488028345904,2022-06-16 13:04:57
589,Main,6,1,20,Graphic designer,True,q_AA,q_DD,False,True,False,Sure same,0,0.0,383.3,3087.0,8.034955024502159,2022-06-16 13:04:57
590,Main,6,1,21,Graphic designer,True,b_BD,b_AD,True,False,False,Sure same,0,0.0,383.3,3141.0,8.052296499538647,2022-06-16 13:04:57
591,Main,6,1,22,Graphic designer,True,z_BC,z_AD,True,True,False,Sure same,0,0.0,383.3,3125.0,8.047189562170502,2022-06-16 13:04:57
592,Main,6,1,23,Graphic designer,True,e_AD,e_BD,True,False,False,Sure same,0,0.0,383.3,3001.0,8.006700845440367,2022-06-16 13:04:57
593,Main,6,1,24,Graphic designer,True,r_AB,r_AD,True,False,True,Sure same,1,3.141592653589793,383.3,3078.0,8.032035314398824,2022-06-16 13:04:57
594,Main,6,1,25,Graphic designer,True,z_AA,z_AA,False,True,True,Sure same,1,3.141592653589793,383.3,2644.0,7.880048200971577,2022-06-16 13:04:57
595,Main,6,1,26,Graphic designer,True,c_AD,c_BC,True,True,False,Probably same,0,0.0,383.3,3439.0,8.142936010432265,2022-06-16 13:04:57
596,Main,6,1,27,Graphic designer,True,t_DD,t_AA,False,True,False,Probably same,0,0.0,383.3,3098.0,8.038512020976814,2022-06-16 13:04:57
597,Main,6,1,28,Graphic designer,True,r_DD,r_AA,False,True,False,Probably same,0,0.0,383.3,3096.0,8.037866234709618,2022-06-16 13:04:57
598,Main,6,1,29,Graphic designer,True,j_BC,j_AD,True,True,False,Probably same,0,0.0,383.3,2859.0,7.958227192322312,2022-06-16 13:04:57
599,Main,6,1,30,Graphic designer,True,p_AD,p_BD,True,False,False,Probably same,0,0.0,383.3,2862.0,7.959275960116396,2022-06-16 13:04:57
600,Main,6,1,31,Graphic designer,True,p_AD,p_AB,True,False,True,Probably same,1,3.141592653589793,383.3,2567.0,7.8504931808711405,2022-06-16 13:04:57
601,Main,6,1,32,Graphic designer,True,n_DD,n_AA,False,True,False,Probably different,1,3.141592653589793,383.3,3763.0,8.232971790593437,2022-06-16 13:04:57
602,Main,6,1,33,Graphic designer,True,h_AD,h_AD,True,True,True,Probably different,0,0.0,383.3,3747.0,8.228710798793687,2022-06-16 13:04:57
603,Main,6,1,34,Graphic designer,True,j_AA,j_AA,False,True,True,Probably same,1,3.141592653589793,383.3,3367.0,8.121777419161074,2022-06-16 13:04:57
604,Main,6,1,35,Graphic designer,True,n_AA,n_AA,False,True,True,Probably same,1,3.141592653589793,383.3,4023.0,8.299783171949787,2022-06-16 13:04:57
605,Main,6,1,36,Graphic designer,True,q_AD,q_AD,True,True,True,Probably same,1,3.141592653589793,383.3,3589.0,8.185628891147607,2022-06-16 13:04:57
606,Main,6,1,37,Graphic designer,True,c_AA,c_AA,False,True,True,Sure same,1,3.141592653589793,383.3,3254.0,8.087640287778983,2022-06-16 13:04:57
607,Main,6,1,38,Graphic designer,True,a_AD,a_AB,True,False,True,Sure same,1,3.141592653589793,383.3,2967.0,7.995306620290822,2022-06-16 13:04:57
608,Main,6,1,39,Graphic designer,True,r_BC,r_AD,True,True,False,Sure same,0,0.0,383.3,3290.0,8.098642843759418,2022-06-16 13:04:57
609,Main,6,1,40,Graphic designer,True,q_AA,q_AA,False,True,True,Sure same,1,3.141592653589793,383.3,3165.0,8.059908334578276,2022-06-16 13:04:57
610,Main,6,1,41,Graphic designer,True,t_AD,t_BD,True,False,False,Sure same,0,0.0,383.3,2808.0,7.940227765145702,2022-06-16 13:04:57
611,Main,6,1,42,Graphic designer,True,q_BC,q_AD,True,True,False,Sure same,0,0.0,383.3,3254.0,8.087640287778983,2022-06-16 13:04:57
612,Main,6,1,43,Graphic designer,True,h_AD,h_BC,True,True,False,Sure same,0,0.0,383.3,2944.0,7.987524479848767,2022-06-16 13:04:57
613,Main,6,1,44,Graphic designer,True,j_AA,j_DD,False,True,False,Sure same,0,0.0,383.3,3395.0,8.130059039992796,2022-06-16 13:04:57
614,Main,6,1,45,Graphic designer,True,c_AD,c_AD,True,True,True,Sure same,1,3.141592653589793,383.3,6888.0,8.837536046107568,2022-06-16 13:04:57
615,Main,6,1,46,Graphic designer,True,e_DD,e_AA,False,True,False,Sure same,0,0.0,383.3,4510.0,8.414052432496725,2022-06-16 13:04:57
616,Main,6,1,47,Graphic designer,True,r_BD,r_AD,True,False,False,Sure same,0,0.0,383.3,3616.0,8.193123721512068,2022-06-16 13:04:57
617,Main,6,1,48,Graphic designer,True,z_AA,z_DD,False,True,False,Probably same,0,0.0,383.3,3293.0,8.099554282376364,2022-06-16 13:04:57
618,Main,6,1,49,Graphic designer,True,e_BC,e_AD,True,True,False,Sure same,0,0.0,383.3,3036.0,8.01829613851552,2022-06-16 13:04:57
619,Main,6,1,50,Graphic designer,True,r_AA,r_AA,False,True,True,Sure same,1,3.141592653589793,383.3,2895.0,7.970740390007095,2022-06-16 13:04:57
620,Main,6,1,51,Graphic designer,True,t_AA,t_AA,False,True,True,Sure same,1,3.141592653589793,383.3,4209.0,8.344980368770571,2022-06-16 13:04:57
621,Main,6,1,52,Graphic designer,True,a_AA,a_AA,False,True,True,Sure same,1,3.141592653589793,383.3,8999.0,9.104868739033948,2022-06-16 13:04:57
622,Main,6,1,53,Graphic designer,True,n_AD,n_AD,True,True,True,Sure same,1,3.141592653589793,383.3,3803.0,8.24354550792826,2022-06-16 13:04:57
623,Main,6,1,54,Graphic designer,True,a_AD,a_BC,True,True,False,Sure same,0,0.0,383.3,4588.0,8.431199478249262,2022-06-16 13:04:57
624,Main,6,1,55,Graphic designer,True,a_DD,a_AA,False,True,False,Probably different,1,3.141592653589793,383.3,3588.0,8.185350223178686,2022-06-16 13:04:57
625,Main,6,1,56,Graphic designer,True,h_AD,h_AB,True,False,True,Sure same,1,3.141592653589793,383.3,7108.0,8.868976189274543,2022-06-16 13:04:57
626,Main,6,1,57,Graphic designer,True,h_DD,h_AA,False,True,False,Probably different,1,3.141592653589793,383.3,3594.0,8.187021067343505,2022-06-16 13:04:57
627,Main,6,1,58,Graphic designer,True,c_AA,c_DD,False,True,False,Sure different,1,3.141592653589793,383.3,3605.0,8.190077049719049,2022-06-16 13:04:57
628,Main,6,1,59,Graphic designer,True,b_DD,b_AA,False,True,False,Probably different,1,3.141592653589793,383.3,4099.0,8.318498320504338,2022-06-16 13:04:57
629,Main,6,1,60,Graphic designer,True,e_AD,e_AD,True,True,True,Probably different,0,0.0,383.3,3663.0,8.206037762778815,2022-06-16 13:04:57
630,Main,6,1,61,Graphic designer,True,a_AD,a_BD,True,False,False,Probably different,1,3.141592653589793,383.3,11263.0,9.329278296047697,2022-06-16 13:04:57
631,Main,6,1,62,Graphic designer,True,h_AD,h_BD,True,False,False,Probably different,1,3.141592653589793,383.3,3059.0,8.025843344150903,2022-06-16 13:04:57
632,Main,6,1,63,Graphic designer,True,r_AD,r_AD,True,True,True,Probably different,0,0.0,383.3,5364.0,8.587465244401569,2022-06-16 13:04:57
633,Main,6,1,64,Graphic designer,True,b_AD,b_BC,True,True,False,Probably different,1,3.141592653589793,383.3,10410.0,9.250522161609014,2022-06-16 13:04:57
634,Main,6,1,65,Graphic designer,True,z_AD,z_BD,True,False,False,Probably different,1,3.141592653589793,383.3,3059.0,8.025843344150903,2022-06-16 13:04:57
635,Main,6,1,66,Graphic designer,True,c_AD,c_BD,True,False,False,Probably different,1,3.141592653589793,383.3,3562.0,8.178077463849608,2022-06-16 13:04:57
636,Main,6,1,67,Graphic designer,True,t_AD,t_AB,True,False,True,Probably different,0,0.0,383.3,3007.0,8.008698182988528,2022-06-16 13:04:57
637,Main,6,1,68,Graphic designer,True,t_BC,t_AD,True,True,False,Probably different,1,3.141592653589793,383.3,7898.0,8.974364841846596,2022-06-16 13:04:57
638,Main,6,1,69,Graphic designer,True,a_AD,a_AD,True,True,True,Probably different,0,0.0,383.3,4007.0,8.295798110636145,2022-06-16 13:04:57
639,Main,6,1,70,Graphic designer,True,e_AA,e_AA,False,True,True,Sure different,0,0.0,383.3,4371.0,8.382747094863314,2022-06-16 13:04:57
640,Main,6,1,71,Graphic designer,True,j_AD,j_BD,True,False,False,Sure same,0,0.0,383.3,3198.0,8.0702808933939,2022-06-16 13:04:57
641,Main,6,1,72,Graphic designer,True,q_AB,q_AD,True,False,True,Probably same,1,3.141592653589793,383.3,2821.0,7.944846711001996,2022-06-16 13:04:57
642,Main,6,0,19,Graphic designer,True,u_BD,u_AD,True,False,False,Sure same,0,0.0,725.0,3723.0,8.222285073872717,2022-06-16 13:04:57
643,Main,6,0,20,Graphic designer,True,i_AD,i_AD,True,True,True,Sure same,1,3.141592653589793,800.0,3687.0,8.212568398234145,2022-06-16 13:04:57
644,Main,7,0,1,Typographer,True,d_AD,d_BC,True,True,False,Probably same,0,0.0,800.0,10101.0,9.220389707829185,2022-06-16 12:47:46
645,Main,7,0,2,Typographer,True,u_AA,u_DD,False,True,False,Sure different,1,3.141592653589793,800.0,4949.0,8.506940814951886,2022-06-16 12:47:46
646,Main,7,0,3,Typographer,True,d_AA,d_DD,False,True,False,Sure different,1,3.141592653589793,800.0,5017.0,8.520587424484253,2022-06-16 12:47:46
647,Main,7,0,4,Typographer,True,d_AA,d_AA,False,True,True,Sure same,1,3.141592653589793,725.0,4571.0,8.427487278331744,2022-06-16 12:47:46
648,Main,7,0,5,Typographer,True,i_AA,i_DD,False,True,False,Sure different,1,3.141592653589793,650.0,3716.0,8.22040309993373,2022-06-16 12:47:46
649,Main,7,0,6,Typographer,True,d_BC,d_AD,True,True,False,Sure different,1,3.141592653589793,575.0,4563.0,8.425735580927402,2022-06-16 12:47:46
650,Main,7,0,7,Typographer,True,i_BD,i_AD,True,False,False,Sure different,1,3.141592653589793,500.0,3621.0,8.19450550976564,2022-06-16 12:47:46
651,Main,7,0,8,Typographer,True,d_BD,d_AD,True,False,False,Sure different,1,3.141592653589793,425.0,3452.0,8.146709052203319,2022-06-16 12:47:46
652,Main,7,0,9,Typographer,True,u_AD,u_AB,True,False,True,Sure same,1,3.141592653589793,350.0,8029.0,8.990815266184685,2022-06-16 12:47:46
653,Main,7,0,10,Typographer,True,d_AB,d_AD,True,False,True,Probably same,1,3.141592653589793,275.0,5754.0,8.657650544111494,2022-06-16 12:47:46
654,Main,7,0,11,Typographer,True,u_BC,u_AD,True,True,False,Sure different,1,3.141592653589793,200.0,3813.0,8.246171559857563,2022-06-16 12:47:46
655,Main,7,0,12,Typographer,True,u_AA,u_AA,False,True,True,Probably same,1,3.141592653589793,200.0,4050.0,8.306472160100585,2022-06-16 12:47:46
656,Main,7,0,13,Typographer,True,i_BC,i_AD,True,True,False,Sure different,1,3.141592653589793,275.0,3951.0,8.281723990411392,2022-06-16 12:47:46
657,Main,7,0,14,Typographer,True,i_AD,i_AB,True,False,True,Probably different,0,0.0,350.0,4503.0,8.412499120301572,2022-06-16 12:47:46
658,Main,7,0,15,Typographer,True,u_AD,u_AD,True,True,True,Probably same,1,3.141592653589793,425.0,4147.0,8.330140460246382,2022-06-16 12:47:46
659,Main,7,0,16,Typographer,True,u_AA,u_DD,False,True,False,Sure different,1,3.141592653589793,500.0,3686.0,8.212297138229768,2022-06-16 12:47:46
660,Main,7,0,17,Typographer,True,d_AD,d_AD,True,True,True,Probably same,1,3.141592653589793,575.0,4265.0,8.35819745992578,2022-06-16 12:47:46
661,Main,7,0,18,Typographer,True,i_AA,i_AA,False,True,True,Probably same,1,3.141592653589793,650.0,5050.0,8.527143522269405,2022-06-16 12:47:46
662,Main,7,1,1,Typographer,True,z_AD,z_AD,True,True,True,Probably same,1,3.141592653589793,188.9,5943.0,8.68996933536666,2022-06-16 12:47:46
663,Main,7,1,2,Typographer,True,t_AD,t_BD,True,False,False,Probably different,1,3.141592653589793,188.9,3466.0,8.150756470275551,2022-06-16 12:47:46
664,Main,7,1,3,Typographer,True,h_AD,h_BD,True,False,False,Sure different,1,3.141592653589793,188.9,3449.0,8.145839612936841,2022-06-16 12:47:46
665,Main,7,1,4,Typographer,True,j_AD,j_BC,True,True,False,Sure different,1,3.141592653589793,188.9,3067.0,8.028455164114252,2022-06-16 12:47:46
666,Main,7,1,5,Typographer,True,t_DD,t_AA,False,True,False,Sure different,1,3.141592653589793,188.9,3040.0,8.019612794400267,2022-06-16 12:47:46
667,Main,7,1,6,Typographer,True,n_AA,n_AA,False,True,True,Probably same,1,3.141592653589793,188.9,3544.0,8.173011311724972,2022-06-16 12:47:46
668,Main,7,1,7,Typographer,True,c_AD,c_AD,True,True,True,Probably different,0,0.0,188.9,4301.0,8.366602832783736,2022-06-16 12:47:46
669,Main,7,1,8,Typographer,True,j_BD,j_AD,True,False,False,Sure different,1,3.141592653589793,188.9,3404.0,8.132706489693264,2022-06-16 12:47:46
670,Main,7,1,9,Typographer,True,e_AD,e_BC,True,True,False,Sure different,1,3.141592653589793,188.9,3113.0,8.043342170441608,2022-06-16 12:47:46
671,Main,7,1,10,Typographer,True,h_AD,h_BC,True,True,False,Probably same,0,0.0,188.9,3683.0,8.211482916445066,2022-06-16 12:47:46
672,Main,7,1,11,Typographer,True,h_AD,h_AD,True,True,True,Probably same,1,3.141592653589793,188.9,3351.0,8.11701408773731,2022-06-16 12:47:46
673,Main,7,1,12,Typographer,True,h_AB,h_AD,True,False,True,Probably same,1,3.141592653589793,188.9,4736.0,8.462948176563842,2022-06-16 12:47:46
674,Main,7,1,13,Typographer,True,b_AD,b_AD,True,True,True,Sure same,1,3.141592653589793,188.9,3951.0,8.281723990411392,2022-06-16 12:47:46
675,Main,7,1,14,Typographer,True,b_AD,b_BC,True,True,False,Sure different,1,3.141592653589793,188.9,3165.0,8.059908334578276,2022-06-16 12:47:46
676,Main,7,1,15,Typographer,True,n_BC,n_AD,True,True,False,Sure different,1,3.141592653589793,188.9,3083.0,8.03365842788615,2022-06-16 12:47:46
677,Main,7,1,16,Typographer,True,t_AD,t_AD,True,True,True,Probably different,0,0.0,188.9,4370.0,8.382518288089635,2022-06-16 12:47:46
678,Main,7,1,17,Typographer,True,z_BD,z_AD,True,False,False,Sure different,1,3.141592653589793,188.9,3097.0,8.038189179973203,2022-06-16 12:47:46
679,Main,7,1,18,Typographer,True,z_AA,z_AA,False,True,True,Sure same,1,3.141592653589793,188.9,3150.0,8.055157731819678,2022-06-16 12:47:46
680,Main,7,1,19,Typographer,True,c_BC,c_AD,True,True,False,Sure different,1,3.141592653589793,188.9,3334.0,8.111928063310739,2022-06-16 12:47:46
681,Main,7,1,20,Typographer,True,j_AB,j_AD,True,False,True,Probably same,1,3.141592653589793,188.9,4036.0,8.3030093814735,2022-06-16 12:47:46
682,Main,7,1,21,Typographer,True,e_AA,e_AA,False,True,True,Probably same,1,3.141592653589793,188.9,3535.0,8.170468578330674,2022-06-16 12:47:46
683,Main,7,1,22,Typographer,True,b_AD,b_AB,True,False,True,Sure same,1,3.141592653589793,188.9,7546.0,8.928772900524256,2022-06-16 12:47:46
684,Main,7,1,23,Typographer,True,r_AB,r_AD,True,False,True,Sure same,1,3.141592653589793,188.9,3886.0,8.265135629937385,2022-06-16 12:47:46
685,Main,7,1,24,Typographer,True,a_AA,a_DD,False,True,False,Sure different,1,3.141592653589793,188.9,2981.0,8.000014093678072,2022-06-16 12:47:46
686,Main,7,1,25,Typographer,True,c_DD,c_AA,False,True,False,Sure different,1,3.141592653589793,188.9,3071.0,8.029758520440822,2022-06-16 12:47:46
687,Main,7,1,26,Typographer,True,e_AD,e_AD,True,True,True,Sure same,1,3.141592653589793,188.9,3213.0,8.074960359115858,2022-06-16 12:47:46
688,Main,7,1,27,Typographer,True,n_BD,n_AD,True,False,False,Sure same,0,0.0,188.9,3405.0,8.133000218583613,2022-06-16 12:47:46
689,Main,7,1,28,Typographer,True,a_AA,a_AA,False,True,True,Sure same,1,3.141592653589793,188.9,3079.0,8.0323601479245,2022-06-16 12:47:46
690,Main,7,1,29,Typographer,True,p_AD,p_AB,True,False,True,Sure same,1,3.141592653589793,188.9,2967.0,7.995306620290822,2022-06-16 12:47:46
691,Main,7,1,30,Typographer,True,r_AD,r_BC,True,True,False,Sure different,1,3.141592653589793,188.9,3417.0,8.136518252115291,2022-06-16 12:47:46
692,Main,7,1,31,Typographer,True,q_AD,q_AD,True,True,True,Sure same,1,3.141592653589793,188.9,2953.0,7.990576881743923,2022-06-16 12:47:46
693,Main,7,1,32,Typographer,True,z_AB,z_AD,True,False,True,Sure same,1,3.141592653589793,188.9,3464.0,8.150179269682326,2022-06-16 12:47:46
694,Main,7,1,33,Typographer,True,n_AB,n_AD,True,False,True,Sure same,1,3.141592653589793,188.9,3650.0,8.202482446576537,2022-06-16 12:47:46
