,StudyID,ParticipantID,TestID,TrialID,Training,isDesigner,First,Second,Composite pair,Congruent pair,Same,Response,Correct,Correct (normalized),ET,RT,RT (normalized),Date
0,Main,0,0,1,Letter designer,True,d_BC,d_AD,True,True,False,Sure different,1,3.141592653589793,800.0,7844.0,8.967504187316237,2022-06-07 16:32:24
1,Main,0,0,2,Letter designer,True,u_AA,u_DD,False,True,False,Sure different,1,3.141592653589793,800.0,4469.0,8.404919948933452,2022-06-07 16:32:24
2,Main,0,0,3,Letter designer,True,d_DD,d_AA,False,True,False,Sure different,1,3.141592653589793,800.0,4339.0,8.37539918579835,2022-06-07 16:32:24
3,Main,0,0,4,Letter designer,True,d_AA,d_AA,False,True,True,Probably same,1,3.141592653589793,725.0,4901.0,8.497194544909547,2022-06-07 16:32:24
4,Main,0,0,5,Letter designer,True,i_DD,i_AA,False,True,False,Sure different,1,3.141592653589793,650.0,3713.0,8.21959545417708,2022-06-07 16:32:24
5,Main,0,0,6,Letter designer,True,d_AD,d_BC,True,True,False,Sure different,1,3.141592653589793,575.0,4193.0,8.341171747170762,2022-06-07 16:32:24
6,Main,0,0,7,Letter designer,True,i_AD,i_BD,True,False,False,Sure different,1,3.141592653589793,500.0,3843.0,8.254008590564844,2022-06-07 16:32:24
7,Main,0,0,8,Letter designer,True,d_AD,d_BD,True,False,False,Sure different,1,3.141592653589793,425.0,3787.0,8.239329427901795,2022-06-07 16:32:24
8,Main,0,0,9,Letter designer,True,u_AD,u_AB,True,False,True,Probably same,1,3.141592653589793,350.0,4500.0,8.411832675758411,2022-06-07 16:32:24
9,Main,0,0,10,Letter designer,True,d_AD,d_AB,True,False,True,Probably same,1,3.141592653589793,275.0,6210.0,8.733916174927524,2022-06-07 16:32:24
10,Main,0,0,11,Letter designer,True,u_BC,u_AD,True,True,False,Sure different,1,3.141592653589793,200.0,3232.0,8.080856419640986,2022-06-07 16:32:24
11,Main,0,0,12,Letter designer,True,u_AA,u_AA,False,True,True,Probably same,1,3.141592653589793,200.0,4332.0,8.37378460812088,2022-06-07 16:32:24
12,Main,0,0,13,Letter designer,True,i_BC,i_AD,True,True,False,Probably same,0,0.0,275.0,4113.0,8.321907968230423,2022-06-07 16:32:24
13,Main,0,0,14,Letter designer,True,i_AB,i_AD,True,False,True,Probably same,1,3.141592653589793,350.0,4151.0,8.33110454805304,2022-06-07 16:32:24
14,Main,0,0,15,Letter designer,True,u_AD,u_AD,True,True,True,Probably same,1,3.141592653589793,425.0,4028.0,8.301025253838453,2022-06-07 16:32:24
15,Main,0,0,16,Letter designer,True,u_AA,u_DD,False,True,False,Sure different,1,3.141592653589793,500.0,3954.0,8.282483003730562,2022-06-07 16:32:24
16,Main,0,0,17,Letter designer,True,d_AD,d_AD,True,True,True,Probably same,1,3.141592653589793,575.0,4046.0,8.305484017727691,2022-06-07 16:32:24
17,Main,0,0,18,Letter designer,True,i_AA,i_AA,False,True,True,Probably same,1,3.141592653589793,650.0,4223.0,8.348301054933943,2022-06-07 16:32:24
18,Main,0,1,1,Letter designer,True,q_AD,q_BC,True,True,False,Probably same,0,0.0,188.9,6875.0,8.835646922534773,2022-06-07 16:32:24
19,Main,0,1,2,Letter designer,True,b_AD,b_AB,True,False,True,Probably same,1,3.141592653589793,188.9,3489.0,8.157370441186774,2022-06-07 16:32:24
20,Main,0,1,3,Letter designer,True,t_AD,t_AB,True,False,True,Probably different,0,0.0,188.9,4307.0,8.36799688505411,2022-06-07 16:32:24
21,Main,0,1,4,Letter designer,True,j_AD,j_AD,True,True,True,Probably same,1,3.141592653589793,188.9,3601.0,8.188966863648876,2022-06-07 16:32:24
22,Main,0,1,5,Letter designer,True,z_BD,z_AD,True,False,False,Probably same,0,0.0,188.9,4196.0,8.341886969516187,2022-06-07 16:32:24
23,Main,0,1,6,Letter designer,True,z_DD,z_AA,False,True,False,Probably different,1,3.141592653589793,188.9,3795.0,8.24143968982973,2022-06-07 16:32:24
24,Main,0,1,7,Letter designer,True,n_AA,n_AA,False,True,True,Probably same,1,3.141592653589793,188.9,3652.0,8.20303024171486,2022-06-07 16:32:24
25,Main,0,1,8,Letter designer,True,e_AD,e_BD,True,False,False,Probably different,1,3.141592653589793,188.9,6239.0,8.738575192110787,2022-06-07 16:32:24
26,Main,0,1,9,Letter designer,True,a_AD,a_BC,True,True,False,Probably same,0,0.0,188.9,3700.0,8.216088098632316,2022-06-07 16:32:24
27,Main,0,1,10,Letter designer,True,e_AD,e_AD,True,True,True,Probably same,1,3.141592653589793,188.9,3580.0,8.183118079394745,2022-06-07 16:32:24
28,Main,0,1,11,Letter designer,True,e_AD,e_AB,True,False,True,Probably same,1,3.141592653589793,188.9,3509.0,8.163086375583216,2022-06-07 16:32:24
29,Main,0,1,12,Letter designer,True,j_AD,j_BC,True,True,False,Sure different,1,3.141592653589793,188.9,3325.0,8.109224953089955,2022-06-07 16:32:24
30,Main,0,1,13,Letter designer,True,q_BD,q_AD,True,False,False,Probably same,0,0.0,188.9,3548.0,8.17413934342947,2022-06-07 16:32:24
31,Main,0,1,14,Letter designer,True,b_AA,b_AA,False,True,True,Probably same,1,3.141592653589793,188.9,3452.0,8.146709052203319,2022-06-07 16:32:24
32,Main,0,1,15,Letter designer,True,p_BD,p_AD,True,False,False,Probably same,0,0.0,188.9,3718.0,8.220941168281389,2022-06-07 16:32:24
33,Main,0,1,16,Letter designer,True,n_AA,n_DD,False,True,False,Sure different,1,3.141592653589793,188.9,3534.0,8.170185652879642,2022-06-07 16:32:24
34,Main,0,1,17,Letter designer,True,q_AD,q_AD,True,True,True,Probably same,1,3.141592653589793,188.9,3563.0,8.178358165605836,2022-06-07 16:32:24
35,Main,0,1,18,Letter designer,True,e_AD,e_BC,True,True,False,Probably same,0,0.0,188.9,3336.0,8.112527763478637,2022-06-07 16:32:24
36,Main,0,1,19,Letter designer,True,h_AD,h_BD,True,False,False,Sure different,1,3.141592653589793,188.9,3198.0,8.0702808933939,2022-06-07 16:32:24
37,Main,0,1,20,Letter designer,True,e_AA,e_DD,False,True,False,Sure different,1,3.141592653589793,188.9,3408.0,8.133880887949207,2022-06-07 16:32:24
38,Main,0,1,21,Letter designer,True,t_DD,t_AA,False,True,False,Sure different,1,3.141592653589793,188.9,3232.0,8.080856419640986,2022-06-07 16:32:24
39,Main,0,1,22,Letter designer,True,h_AA,h_DD,False,True,False,Sure different,1,3.141592653589793,188.9,3175.0,8.063062911326792,2022-06-07 16:32:24
40,Main,0,1,23,Letter designer,True,r_BC,r_AD,True,True,False,Sure different,1,3.141592653589793,188.9,3125.0,8.047189562170502,2022-06-07 16:32:24
41,Main,0,1,24,Letter designer,True,n_BC,n_AD,True,True,False,Sure different,1,3.141592653589793,188.9,3294.0,8.099857910737585,2022-06-07 16:32:24
42,Main,0,1,25,Letter designer,True,c_AD,c_BC,True,True,False,Probably different,1,3.141592653589793,188.9,3664.0,8.20631072579402,2022-06-07 16:32:24
43,Main,0,1,26,Letter designer,True,r_AD,r_AB,True,False,True,Probably same,1,3.141592653589793,188.9,3633.0,8.197814032221203,2022-06-07 16:32:24
44,Main,0,1,27,Letter designer,True,b_AA,b_DD,False,True,False,Sure different,1,3.141592653589793,188.9,3217.0,8.076204527239026,2022-06-07 16:32:24
45,Main,0,1,28,Letter designer,True,r_AD,r_BD,True,False,False,Sure different,1,3.141592653589793,188.9,3275.0,8.094073148069352,2022-06-07 16:32:24
46,Main,0,1,29,Letter designer,True,a_AA,a_AA,False,True,True,Probably same,1,3.141592653589793,188.9,3409.0,8.134174272137903,2022-06-07 16:32:24
47,Main,0,1,30,Letter designer,True,t_BD,t_AD,True,False,False,Probably same,0,0.0,188.9,3240.0,8.083328608786376,2022-06-07 16:32:24
48,Main,0,1,31,Letter designer,True,t_AD,t_AD,True,True,True,Probably same,1,3.141592653589793,188.9,3508.0,8.162801353492073,2022-06-07 16:32:24
49,Main,0,1,32,Letter designer,True,p_DD,p_AA,False,True,False,Sure different,1,3.141592653589793,188.9,3249.0,8.0861025356691,2022-06-07 16:32:24
50,Main,0,1,33,Letter designer,True,c_AD,c_AD,True,True,True,Probably same,1,3.141592653589793,188.9,3452.0,8.146709052203319,2022-06-07 16:32:24
51,Main,0,1,34,Letter designer,True,n_AD,n_AD,True,True,True,Probably same,1,3.141592653589793,188.9,4151.0,8.33110454805304,2022-06-07 16:32:24
52,Main,0,1,35,Letter designer,True,c_DD,c_AA,False,True,False,Sure different,1,3.141592653589793,188.9,3189.0,8.067462667010057,2022-06-07 16:32:24
53,Main,0,1,36,Letter designer,True,c_AB,c_AD,True,False,True,Probably different,0,0.0,188.9,3825.0,8.249313746260636,2022-06-07 16:32:24
54,Main,0,1,37,Letter designer,True,h_AA,h_AA,False,True,True,Probably same,1,3.141592653589793,188.9,3680.0,8.210668031162976,2022-06-07 16:32:24
55,Main,0,1,38,Letter designer,True,r_AA,r_AA,False,True,True,Probably same,1,3.141592653589793,188.9,3308.0,8.104099056143582,2022-06-07 16:32:24
56,Main,0,1,39,Letter designer,True,e_AA,e_AA,False,True,True,Probably same,1,3.141592653589793,188.9,4671.0,8.449128460502108,2022-06-07 16:32:24
57,Main,0,1,40,Letter designer,True,h_AB,h_AD,True,False,True,Probably same,1,3.141592653589793,188.9,4782.0,8.47261414801827,2022-06-07 16:32:24
58,Main,0,1,41,Letter designer,True,n_AD,n_BD,True,False,False,Sure different,1,3.141592653589793,188.9,3641.0,8.200013648175434,2022-06-07 16:32:24
59,Main,0,1,42,Letter designer,True,h_AD,h_BC,True,True,False,Sure different,1,3.141592653589793,188.9,3141.0,8.052296499538647,2022-06-07 16:32:24
60,Main,0,1,43,Letter designer,True,j_AB,j_AD,True,False,True,Probably same,1,3.141592653589793,188.9,3517.0,8.165363632473982,2022-06-07 16:32:24
61,Main,0,1,44,Letter designer,True,c_AA,c_AA,False,True,True,Probably different,0,0.0,188.9,5004.0,8.517992871586802,2022-06-07 16:32:24
62,Main,0,1,45,Letter designer,True,p_AB,p_AD,True,False,True,Probably same,1,3.141592653589793,188.9,4155.0,8.332067707289548,2022-06-07 16:32:24
63,Main,0,1,46,Letter designer,True,r_AD,r_AD,True,True,True,Probably different,0,0.0,188.9,4456.0,8.40200678160712,2022-06-07 16:32:24
64,Main,0,1,47,Letter designer,True,q_DD,q_AA,False,True,False,Sure different,1,3.141592653589793,188.9,3265.0,8.09101504171053,2022-06-07 16:32:24
65,Main,0,1,48,Letter designer,True,j_BD,j_AD,True,False,False,Sure different,1,3.141592653589793,188.9,3092.0,8.036573409707312,2022-06-07 16:32:24
66,Main,0,1,49,Letter designer,True,t_BC,t_AD,True,True,False,Probably same,0,0.0,188.9,3886.0,8.265135629937385,2022-06-07 16:32:24
67,Main,0,1,50,Letter designer,True,j_AA,j_AA,False,True,True,Probably same,1,3.141592653589793,188.9,4332.0,8.37378460812088,2022-06-07 16:32:24
68,Main,0,1,51,Letter designer,True,z_AB,z_AD,True,False,True,Probably same,1,3.141592653589793,188.9,3276.0,8.09437844497296,2022-06-07 16:32:24
69,Main,0,1,52,Letter designer,True,z_AA,z_AA,False,True,True,Probably same,1,3.141592653589793,188.9,3515.0,8.164794804244766,2022-06-07 16:32:24
70,Main,0,1,53,Letter designer,True,p_AD,p_AD,True,True,True,Probably same,1,3.141592653589793,188.9,3567.0,8.17948018535889,2022-06-07 16:32:24
71,Main,0,1,54,Letter designer,True,h_AD,h_AD,True,True,True,Probably same,1,3.141592653589793,188.9,3465.0,8.150467911624004,2022-06-07 16:32:24
72,Main,0,1,55,Letter designer,True,a_DD,a_AA,False,True,False,Sure different,1,3.141592653589793,188.9,3084.0,8.03398273468322,2022-06-07 16:32:24
73,Main,0,1,56,Letter designer,True,r_AA,r_DD,False,True,False,Sure different,1,3.141592653589793,188.9,3081.0,8.033009498596668,2022-06-07 16:32:24
74,Main,0,1,57,Letter designer,True,z_AD,z_AD,True,True,True,Probably same,1,3.141592653589793,188.9,3499.0,8.160232492367689,2022-06-07 16:32:24
75,Main,0,1,58,Letter designer,True,j_AA,j_DD,False,True,False,Sure different,1,3.141592653589793,188.9,3226.0,8.078998258685154,2022-06-07 16:32:24
76,Main,0,1,59,Letter designer,True,n_AB,n_AD,True,False,True,Probably same,1,3.141592653589793,188.9,3338.0,8.11312710422178,2022-06-07 16:32:24
77,Main,0,1,60,Letter designer,True,b_AD,b_BC,True,True,False,Sure different,1,3.141592653589793,188.9,3369.0,8.122371243406553,2022-06-07 16:32:24
78,Main,0,1,61,Letter designer,True,q_AB,q_AD,True,False,True,Probably same,1,3.141592653589793,188.9,3562.0,8.178077463849608,2022-06-07 16:32:24
79,Main,0,1,62,Letter designer,True,c_AD,c_BD,True,False,False,Probably different,1,3.141592653589793,188.9,4117.0,8.322880021769905,2022-06-07 16:32:24
80,Main,0,1,63,Letter designer,True,b_AD,b_BD,True,False,False,Sure different,1,3.141592653589793,188.9,3231.0,8.080546965824498,2022-06-07 16:32:24
81,Main,0,1,64,Letter designer,True,a_AD,a_AB,True,False,True,Probably different,0,0.0,188.9,3757.0,8.231376045573969,2022-06-07 16:32:24
82,Main,0,1,65,Letter designer,True,a_BD,a_AD,True,False,False,Probably different,1,3.141592653589793,188.9,5765.0,8.65956043270316,2022-06-07 16:32:24
83,Main,0,1,66,Letter designer,True,p_AA,p_AA,False,True,True,Probably same,1,3.141592653589793,188.9,3225.0,8.078688229229872,2022-06-07 16:32:24
84,Main,0,1,67,Letter designer,True,t_AA,t_AA,False,True,True,Probably different,0,0.0,188.9,4239.0,8.352082671352637,2022-06-07 16:32:24
85,Main,0,1,68,Letter designer,True,q_AA,q_AA,False,True,True,Probably same,1,3.141592653589793,188.9,3811.0,8.24564690087386,2022-06-07 16:32:24
86,Main,0,1,69,Letter designer,True,z_BC,z_AD,True,True,False,Probably different,1,3.141592653589793,188.9,13048.0,9.476390144300849,2022-06-07 16:32:24
87,Main,0,1,70,Letter designer,True,a_AD,a_AD,True,True,True,Probably same,1,3.141592653589793,188.9,3501.0,8.160803920954665,2022-06-07 16:32:24
88,Main,0,1,71,Letter designer,True,p_BC,p_AD,True,True,False,Sure different,1,3.141592653589793,188.9,3232.0,8.080856419640986,2022-06-07 16:32:24
89,Main,0,1,72,Letter designer,True,b_AD,b_AD,True,True,True,Probably same,1,3.141592653589793,188.9,3453.0,8.146998697389993,2022-06-07 16:32:24
90,Main,0,0,19,Letter designer,True,u_BD,u_AD,True,False,False,Sure different,1,3.141592653589793,725.0,4053.0,8.307212626628308,2022-06-07 16:32:24
91,Main,0,0,20,Letter designer,True,i_AD,i_AD,True,True,True,Probably same,1,3.141592653589793,800.0,4449.0,8.400434630806041,2022-06-07 16:32:24
92,Main,1,0,1,Graphic designer,True,d_BC,d_AD,True,True,False,Probably same,0,0.0,800.0,10452.0,9.254548626640503,2022-06-07 14:25:41
93,Main,1,0,2,Graphic designer,True,u_DD,u_AA,False,True,False,Sure different,1,3.141592653589793,800.0,3922.0,8.274357006756292,2022-06-07 14:25:41
94,Main,1,0,3,Graphic designer,True,d_DD,d_AA,False,True,False,Probably different,1,3.141592653589793,800.0,4366.0,8.38160253710989,2022-06-07 14:25:41
95,Main,1,0,4,Graphic designer,True,d_AA,d_AA,False,True,True,Sure same,1,3.141592653589793,725.0,3678.0,8.210124405164267,2022-06-07 14:25:41
96,Main,1,0,5,Graphic designer,True,i_AA,i_DD,False,True,False,Sure different,1,3.141592653589793,650.0,3368.0,8.122074375362217,2022-06-07 14:25:41
97,Main,1,0,6,Graphic designer,True,d_BC,d_AD,True,True,False,Sure different,1,3.141592653589793,575.0,3162.0,8.058960017769417,2022-06-07 14:25:41
98,Main,1,0,7,Graphic designer,True,i_AD,i_BD,True,False,False,Probably different,1,3.141592653589793,500.0,3847.0,8.255048902752295,2022-06-07 14:25:41
99,Main,1,0,8,Graphic designer,True,d_BD,d_AD,True,False,False,Sure different,1,3.141592653589793,425.0,2962.0,7.993619994827744,2022-06-07 14:25:41
100,Main,1,0,9,Graphic designer,True,u_AB,u_AD,True,False,True,Sure same,1,3.141592653589793,350.0,3175.0,8.063062911326792,2022-06-07 14:25:41
101,Main,1,0,10,Graphic designer,True,d_AB,d_AD,True,False,True,Probably same,1,3.141592653589793,275.0,3444.0,8.144388865547622,2022-06-07 14:25:41
102,Main,1,0,11,Graphic designer,True,u_BC,u_AD,True,True,False,Sure different,1,3.141592653589793,200.0,2877.0,7.964503363551548,2022-06-07 14:25:41
103,Main,1,0,12,Graphic designer,True,u_AA,u_AA,False,True,True,Sure same,1,3.141592653589793,200.0,2721.0,7.908754738783246,2022-06-07 14:25:41
104,Main,1,0,13,Graphic designer,True,i_BC,i_AD,True,True,False,Sure different,1,3.141592653589793,275.0,3258.0,8.08886878916199,2022-06-07 14:25:41
105,Main,1,0,14,Graphic designer,True,i_AD,i_AB,True,False,True,Sure same,1,3.141592653589793,350.0,4916.0,8.500250470685925,2022-06-07 14:25:41
106,Main,1,0,15,Graphic designer,True,u_AD,u_AD,True,True,True,Sure same,1,3.141592653589793,425.0,2755.0,7.9211727215870145,2022-06-07 14:25:41
107,Main,1,0,16,Graphic designer,True,u_AA,u_DD,False,True,False,Sure different,1,3.141592653589793,500.0,3489.0,8.157370441186774,2022-06-07 14:25:41
108,Main,1,0,17,Graphic designer,True,d_AD,d_AD,True,True,True,Probably different,0,0.0,575.0,3759.0,8.231908243564177,2022-06-07 14:25:41
109,Main,1,0,18,Graphic designer,True,i_AA,i_AA,False,True,True,Probably same,1,3.141592653589793,650.0,4229.0,8.34972083747249,2022-06-07 14:25:41
110,Main,1,1,1,Graphic designer,True,b_AA,b_DD,False,True,False,Sure different,1,3.141592653589793,188.9,4930.0,8.503094267036737,2022-06-07 14:25:41
111,Main,1,1,2,Graphic designer,True,c_AD,c_BD,True,False,False,Sure same,0,0.0,188.9,3970.0,8.286521373681236,2022-06-07 14:25:41
112,Main,1,1,3,Graphic designer,True,h_AB,h_AD,True,False,True,Sure same,1,3.141592653589793,188.9,2867.0,7.96102146588337,2022-06-07 14:25:41
113,Main,1,1,4,Graphic designer,True,q_AD,q_AD,True,True,True,Sure same,1,3.141592653589793,188.9,3163.0,8.059276223305648,2022-06-07 14:25:41
114,Main,1,1,5,Graphic designer,True,j_AB,j_AD,True,False,True,Probably same,1,3.141592653589793,188.9,4478.0,8.4069317971587,2022-06-07 14:25:41
115,Main,1,1,6,Graphic designer,True,b_AB,b_AD,True,False,True,Sure same,1,3.141592653589793,188.9,2740.0,7.9157131993821155,2022-06-07 14:25:41
116,Main,1,1,7,Graphic designer,True,e_DD,e_AA,False,True,False,Sure different,1,3.141592653589793,188.9,3428.0,8.13973227971767,2022-06-07 14:25:41
117,Main,1,1,8,Graphic designer,True,q_AD,q_AB,True,False,True,Probably same,1,3.141592653589793,188.9,3595.0,8.187299270155147,2022-06-07 14:25:41
118,Main,1,1,9,Graphic designer,True,p_AD,p_BD,True,False,False,Sure different,1,3.141592653589793,188.9,3192.0,8.068402958569699,2022-06-07 14:25:41
119,Main,1,1,10,Graphic designer,True,j_DD,j_AA,False,True,False,Sure different,1,3.141592653589793,188.9,2594.0,7.860956364876389,2022-06-07 14:25:41
120,Main,1,1,11,Graphic designer,True,a_AA,a_AA,False,True,True,Sure same,1,3.141592653589793,188.9,2856.0,7.957177323459475,2022-06-07 14:25:41
121,Main,1,1,12,Graphic designer,True,n_AD,n_BC,True,True,False,Sure different,1,3.141592653589793,188.9,2795.0,7.9355873855892,2022-06-07 14:25:41
122,Main,1,1,13,Graphic designer,True,j_AA,j_AA,False,True,True,Sure same,1,3.141592653589793,188.9,2736.0,7.914252278742441,2022-06-07 14:25:41
123,Main,1,1,14,Graphic designer,True,r_DD,r_AA,False,True,False,Sure different,1,3.141592653589793,188.9,3066.0,8.028129059431759,2022-06-07 14:25:41
124,Main,1,1,15,Graphic designer,True,t_AD,t_BD,True,False,False,Sure different,1,3.141592653589793,188.9,3200.0,8.070906088787819,2022-06-07 14:25:41
125,Main,1,1,16,Graphic designer,True,e_AA,e_AA,False,True,True,Probably same,1,3.141592653589793,188.9,3675.0,8.209308411646937,2022-06-07 14:25:41
126,Main,1,1,17,Graphic designer,True,t_AD,t_AB,True,False,True,Sure same,1,3.141592653589793,188.9,2612.0,7.867871490396322,2022-06-07 14:25:41
127,Main,1,1,18,Graphic designer,True,b_AA,b_AA,False,True,True,Sure same,1,3.141592653589793,188.9,2454.0,7.805474625270857,2022-06-07 14:25:41
128,Main,1,1,19,Graphic designer,True,t_AA,t_DD,False,True,False,Sure different,1,3.141592653589793,188.9,3042.0,8.020270472819238,2022-06-07 14:25:41
129,Main,1,1,20,Graphic designer,True,z_DD,z_AA,False,True,False,Sure different,1,3.141592653589793,188.9,2674.0,7.891330757661889,2022-06-07 14:25:41
130,Main,1,1,21,Graphic designer,True,b_AD,b_BC,True,True,False,Sure different,1,3.141592653589793,188.9,2821.0,7.944846711001996,2022-06-07 14:25:41
131,Main,1,1,22,Graphic designer,True,h_AD,h_BC,True,True,False,Sure different,1,3.141592653589793,188.9,2495.0,7.822044008185619,2022-06-07 14:25:41
132,Main,1,1,23,Graphic designer,True,j_AD,j_AD,True,True,True,Sure same,1,3.141592653589793,188.9,2559.0,7.847371836159788,2022-06-07 14:25:41
133,Main,1,1,24,Graphic designer,True,p_DD,p_AA,False,True,False,Sure different,1,3.141592653589793,188.9,2740.0,7.9157131993821155,2022-06-07 14:25:41
134,Main,1,1,25,Graphic designer,True,h_AD,h_AD,True,True,True,Sure same,1,3.141592653589793,188.9,2697.0,7.89989532313973,2022-06-07 14:25:41
135,Main,1,1,26,Graphic designer,True,z_AD,z_AD,True,True,True,Sure same,1,3.141592653589793,188.9,2903.0,7.97349996402463,2022-06-07 14:25:41
136,Main,1,1,27,Graphic designer,True,c_AD,c_AB,True,False,True,Sure same,1,3.141592653589793,188.9,2373.0,7.771910256435763,2022-06-07 14:25:41
137,Main,1,1,28,Graphic designer,True,a_BD,a_AD,True,False,False,Sure same,0,0.0,188.9,2511.0,7.828436359157585,2022-06-07 14:25:41
138,Main,1,1,29,Graphic designer,True,p_AA,p_AA,False,True,True,Sure same,1,3.141592653589793,188.9,2467.0,7.810758116529357,2022-06-07 14:25:41
139,Main,1,1,30,Graphic designer,True,a_AD,a_AD,True,True,True,Sure same,1,3.141592653589793,188.9,2717.0,7.907283609426348,2022-06-07 14:25:41
140,Main,1,1,31,Graphic designer,True,c_AD,c_BC,True,True,False,Sure same,0,0.0,188.9,2320.0,7.749322464660356,2022-06-07 14:25:41
141,Main,1,1,32,Graphic designer,True,r_AB,r_AD,True,False,True,Sure same,1,3.141592653589793,188.9,2559.0,7.847371836159788,2022-06-07 14:25:41
142,Main,1,1,33,Graphic designer,True,n_AD,n_AD,True,True,True,Sure same,1,3.141592653589793,188.9,2486.0,7.818430272070656,2022-06-07 14:25:41
143,Main,1,1,34,Graphic designer,True,n_BD,n_AD,True,False,False,Sure different,1,3.141592653589793,188.9,2409.0,7.786967002614872,2022-06-07 14:25:41
144,Main,1,1,35,Graphic designer,True,e_AD,e_BC,True,True,False,Probably different,1,3.141592653589793,188.9,3085.0,8.034306936339489,2022-06-07 14:25:41
145,Main,1,1,36,Graphic designer,True,q_DD,q_AA,False,True,False,Sure different,1,3.141592653589793,188.9,2750.0,7.919356190660617,2022-06-07 14:25:41
146,Main,1,1,37,Graphic designer,True,t_AA,t_AA,False,True,True,Sure same,1,3.141592653589793,188.9,3606.0,8.190354403763262,2022-06-07 14:25:41
147,Main,1,1,38,Graphic designer,True,h_AD,h_BD,True,False,False,Sure different,1,3.141592653589793,188.9,4082.0,8.31434234336979,2022-06-07 14:25:41
148,Main,1,1,39,Graphic designer,True,r_AD,r_AD,True,True,True,Probably same,1,3.141592653589793,188.9,4410.0,8.391629968440892,2022-06-07 14:25:41
149,Main,1,1,40,Graphic designer,True,z_BC,z_AD,True,True,False,Sure different,1,3.141592653589793,188.9,2734.0,7.913521017283895,2022-06-07 14:25:41
150,Main,1,1,41,Graphic designer,True,e_AB,e_AD,True,False,True,Probably same,1,3.141592653589793,188.9,4615.0,8.437067146936952,2022-06-07 14:25:41
151,Main,1,1,42,Graphic designer,True,z_AB,z_AD,True,False,True,Sure same,1,3.141592653589793,188.9,2869.0,7.9617188159813645,2022-06-07 14:25:41
152,Main,1,1,43,Graphic designer,True,t_AD,t_AD,True,True,True,Sure same,1,3.141592653589793,188.9,2286.0,7.734558844354756,2022-06-07 14:25:41
153,Main,1,1,44,Graphic designer,True,c_AD,c_AD,True,True,True,Sure same,1,3.141592653589793,188.9,2224.0,7.707062655370473,2022-06-07 14:25:41
154,Main,1,1,45,Graphic designer,True,e_BD,e_AD,True,False,False,Sure same,0,0.0,188.9,2254.0,7.720461694599722,2022-06-07 14:25:41
155,Main,1,1,46,Graphic designer,True,q_AA,q_AA,False,True,True,Sure same,1,3.141592653589793,188.9,2195.0,7.693937325509272,2022-06-07 14:25:41
156,Main,1,1,47,Graphic designer,True,r_AD,r_BC,True,True,False,Sure different,1,3.141592653589793,188.9,2880.0,7.965545573129992,2022-06-07 14:25:41
157,Main,1,1,48,Graphic designer,True,p_AD,p_AD,True,True,True,Sure same,1,3.141592653589793,188.9,2777.0,7.9291264873067995,2022-06-07 14:25:41
158,Main,1,1,49,Graphic designer,True,a_BC,a_AD,True,True,False,Probably same,0,0.0,188.9,2836.0,7.950149887652018,2022-06-07 14:25:41
159,Main,1,1,50,Graphic designer,True,n_AB,n_AD,True,False,True,Probably same,1,3.141592653589793,188.9,3028.0,8.01565761455734,2022-06-07 14:25:41
160,Main,1,1,51,Graphic designer,True,b_AD,b_BD,True,False,False,Sure different,1,3.141592653589793,188.9,2764.0,7.92443418488756,2022-06-07 14:25:41
161,Main,1,1,52,Graphic designer,True,z_AD,z_BD,True,False,False,Sure different,1,3.141592653589793,188.9,2428.0,7.794823152179389,2022-06-07 14:25:41
162,Main,1,1,53,Graphic designer,True,b_AD,b_AD,True,True,True,Probably same,1,3.141592653589793,188.9,3846.0,8.254788926148725,2022-06-07 14:25:41
163,Main,1,1,54,Graphic designer,True,c_DD,c_AA,False,True,False,Sure different,1,3.141592653589793,188.9,2596.0,7.86172707782398,2022-06-07 14:25:41
164,Main,1,1,55,Graphic designer,True,t_AD,t_BC,True,True,False,Probably same,0,0.0,188.9,3316.0,8.106514516255185,2022-06-07 14:25:41
165,Main,1,1,56,Graphic designer,True,n_AA,n_DD,False,True,False,Sure different,1,3.141592653589793,188.9,2499.0,7.823645930834952,2022-06-07 14:25:41
166,Main,1,1,57,Graphic designer,True,c_AA,c_AA,False,True,True,Probably same,1,3.141592653589793,188.9,3136.0,8.0507033814703,2022-06-07 14:25:41
167,Main,1,1,58,Graphic designer,True,a_AA,a_DD,False,True,False,Sure different,1,3.141592653589793,188.9,2603.0,7.864419904994565,2022-06-07 14:25:41
168,Main,1,1,59,Graphic designer,True,q_BC,q_AD,True,True,False,Probably different,1,3.141592653589793,188.9,3535.0,8.170468578330674,2022-06-07 14:25:41
169,Main,1,1,60,Graphic designer,True,j_AD,j_BD,True,False,False,Sure different,1,3.141592653589793,188.9,2470.0,7.8119734296220225,2022-06-07 14:25:41
170,Main,1,1,61,Graphic designer,True,r_BD,r_AD,True,False,False,Sure different,1,3.141592653589793,188.9,2953.0,7.990576881743923,2022-06-07 14:25:41
171,Main,1,1,62,Graphic designer,True,h_DD,h_AA,False,True,False,Sure different,1,3.141592653589793,188.9,2491.0,7.820439515262181,2022-06-07 14:25:41
172,Main,1,1,63,Graphic designer,True,p_AD,p_BC,True,True,False,Sure different,1,3.141592653589793,188.9,2208.0,7.699842407396986,2022-06-07 14:25:41
173,Main,1,1,64,Graphic designer,True,j_AD,j_BC,True,True,False,Sure different,1,3.141592653589793,188.9,2109.0,7.653969180478774,2022-06-07 14:25:41
174,Main,1,1,65,Graphic designer,True,p_AB,p_AD,True,False,True,Probably same,1,3.141592653589793,188.9,3059.0,8.025843344150903,2022-06-07 14:25:41
175,Main,1,1,66,Graphic designer,True,h_AA,h_AA,False,True,True,Sure same,1,3.141592653589793,188.9,2597.0,7.862112211662748,2022-06-07 14:25:41
176,Main,1,1,67,Graphic designer,True,r_AA,r_AA,False,True,True,Sure same,1,3.141592653589793,188.9,3897.0,8.26796230533871,2022-06-07 14:25:41
177,Main,1,1,68,Graphic designer,True,e_AD,e_AD,True,True,True,Sure same,1,3.141592653589793,188.9,2338.0,7.757051142032013,2022-06-07 14:25:41
178,Main,1,1,69,Graphic designer,True,n_AA,n_AA,False,True,True,Sure same,1,3.141592653589793,188.9,2468.0,7.811163385025279,2022-06-07 14:25:41
179,Main,1,1,70,Graphic designer,True,z_AA,z_AA,False,True,True,Sure same,1,3.141592653589793,188.9,2186.0,7.689828668736484,2022-06-07 14:25:41
180,Main,1,1,71,Graphic designer,True,q_AD,q_BD,True,False,False,Sure same,0,0.0,188.9,2241.0,7.714677473800927,2022-06-07 14:25:41
181,Main,1,1,72,Graphic designer,True,a_AD,a_AB,True,False,True,Sure same,1,3.141592653589793,188.9,2242.0,7.715123603632105,2022-06-07 14:25:41
182,Main,1,0,19,Graphic designer,True,u_BD,u_AD,True,False,False,Sure different,1,3.141592653589793,725.0,3241.0,8.083637203141548,2022-06-07 14:25:41
183,Main,1,0,20,Graphic designer,True,i_AD,i_AD,True,True,True,Sure same,1,3.141592653589793,800.0,3865.0,8.259716961021523,2022-06-07 14:25:41
184,Main,2,0,1,Letter designer,True,d_BC,d_AD,True,True,False,Probably same,0,0.0,800.0,9540.0,9.163248764442333,2022-06-07 06:30:44
185,Main,2,0,2,Letter designer,True,u_AA,u_DD,False,True,False,Probably same,0,0.0,800.0,4362.0,8.380685946761574,2022-06-07 06:30:44
186,Main,2,0,3,Letter designer,True,d_AA,d_DD,False,True,False,Sure same,0,0.0,800.0,4285.0,8.36287583103188,2022-06-07 06:30:44
187,Main,2,0,4,Letter designer,True,d_AA,d_AA,False,True,True,Probably different,0,0.0,725.0,4232.0,8.350429973538136,2022-06-07 06:30:44
188,Main,2,0,5,Letter designer,True,i_DD,i_AA,False,True,False,Probably different,1,3.141592653589793,650.0,4379.0,8.384575666801398,2022-06-07 06:30:44
189,Main,2,0,6,Letter designer,True,d_AD,d_BC,True,True,False,Probably same,0,0.0,575.0,4023.0,8.299783171949787,2022-06-07 06:30:44
190,Main,2,0,7,Letter designer,True,i_AD,i_BD,True,False,False,Probably same,0,0.0,500.0,4865.0,8.489821994620105,2022-06-07 06:30:44
191,Main,2,0,8,Letter designer,True,d_AD,d_BD,True,False,False,Sure same,0,0.0,425.0,3659.0,8.204945165019208,2022-06-07 06:30:44
192,Main,2,0,9,Letter designer,True,u_AD,u_AB,True,False,True,Probably different,0,0.0,350.0,6486.0,8.777401286867264,2022-06-07 06:30:44
193,Main,2,0,10,Letter designer,True,d_AB,d_AD,True,False,True,Probably same,1,3.141592653589793,275.0,5408.0,8.5956346177228,2022-06-07 06:30:44
194,Main,2,0,11,Letter designer,True,u_BC,u_AD,True,True,False,Probably different,1,3.141592653589793,200.0,3122.0,8.046229101075378,2022-06-07 06:30:44
195,Main,2,0,12,Letter designer,True,u_AA,u_AA,False,True,True,Sure same,1,3.141592653589793,200.0,3314.0,8.105911197986508,2022-06-07 06:30:44
196,Main,2,0,13,Letter designer,True,i_AD,i_BC,True,True,False,Probably same,0,0.0,275.0,3240.0,8.083328608786376,2022-06-07 06:30:44
197,Main,2,0,14,Letter designer,True,i_AD,i_AB,True,False,True,Sure same,1,3.141592653589793,350.0,3406.0,8.133293861222633,2022-06-07 06:30:44
198,Main,2,0,15,Letter designer,True,u_AD,u_AD,True,True,True,Probably different,0,0.0,425.0,3383.0,8.12651816878071,2022-06-07 06:30:44
199,Main,2,0,16,Letter designer,True,u_DD,u_AA,False,True,False,Probably different,1,3.141592653589793,500.0,3538.0,8.17131687471973,2022-06-07 06:30:44
200,Main,2,0,17,Letter designer,True,d_AD,d_AD,True,True,True,Probably same,1,3.141592653589793,575.0,3539.0,8.171599480345463,2022-06-07 06:30:44
201,Main,2,0,18,Letter designer,True,i_AA,i_AA,False,True,True,Sure same,1,3.141592653589793,650.0,3653.0,8.203304026795282,2022-06-07 06:30:44
202,Main,2,1,1,Letter designer,True,n_AA,n_AA,False,True,True,Probably same,1,3.141592653589793,461.1,6516.0,8.782015969721936,2022-06-07 06:30:44
203,Main,2,1,2,Letter designer,True,j_AA,j_AA,False,True,True,Probably different,0,0.0,461.1,4065.0,8.310169021981912,2022-06-07 06:30:44
204,Main,2,1,3,Letter designer,True,a_BC,a_AD,True,True,False,Probably different,1,3.141592653589793,461.1,4341.0,8.375860015299594,2022-06-07 06:30:44
205,Main,2,1,4,Letter designer,True,p_AB,p_AD,True,False,True,Sure same,1,3.141592653589793,461.1,3411.0,8.134760782418645,2022-06-07 06:30:44
206,Main,2,1,5,Letter designer,True,q_AB,q_AD,True,False,True,Sure same,1,3.141592653589793,461.1,3417.0,8.136518252115291,2022-06-07 06:30:44
207,Main,2,1,6,Letter designer,True,e_AD,e_BD,True,False,False,Sure same,0,0.0,461.1,3306.0,8.10349427838097,2022-06-07 06:30:44
208,Main,2,1,7,Letter designer,True,h_DD,h_AA,False,True,False,Probably same,0,0.0,461.1,3430.0,8.140315540159985,2022-06-07 06:30:44
209,Main,2,1,8,Letter designer,True,e_AA,e_AA,False,True,True,Sure same,1,3.141592653589793,461.1,3396.0,8.130353547431238,2022-06-07 06:30:44
210,Main,2,1,9,Letter designer,True,e_AD,e_BC,True,True,False,Sure same,0,0.0,461.1,3193.0,8.068716192714781,2022-06-07 06:30:44
211,Main,2,1,10,Letter designer,True,n_BC,n_AD,True,True,False,Sure different,1,3.141592653589793,461.1,3749.0,8.229244416735913,2022-06-07 06:30:44
212,Main,2,1,11,Letter designer,True,b_AD,b_AD,True,True,True,Sure same,1,3.141592653589793,461.1,3266.0,8.09132127353041,2022-06-07 06:30:44
213,Main,2,1,12,Letter designer,True,j_DD,j_AA,False,True,False,Sure different,1,3.141592653589793,461.1,3283.0,8.096512917501594,2022-06-07 06:30:44
214,Main,2,1,13,Letter designer,True,h_AD,h_AD,True,True,True,Probably same,1,3.141592653589793,461.1,3473.0,8.152774052744075,2022-06-07 06:30:44
215,Main,2,1,14,Letter designer,True,q_AD,q_AD,True,True,True,Sure same,1,3.141592653589793,461.1,3283.0,8.096512917501594,2022-06-07 06:30:44
216,Main,2,1,15,Letter designer,True,a_BD,a_AD,True,False,False,Sure different,1,3.141592653589793,461.1,3394.0,8.129764445794171,2022-06-07 06:30:44
217,Main,2,1,16,Letter designer,True,p_BD,p_AD,True,False,False,Sure different,1,3.141592653589793,461.1,3888.0,8.265650165580329,2022-06-07 06:30:44
218,Main,2,1,17,Letter designer,True,n_AD,n_BD,True,False,False,Sure different,1,3.141592653589793,461.1,3469.0,8.15162164696975,2022-06-07 06:30:44
219,Main,2,1,18,Letter designer,True,b_AB,b_AD,True,False,True,Probably same,1,3.141592653589793,461.1,3441.0,8.14351740579748,2022-06-07 06:30:44
220,Main,2,1,19,Letter designer,True,c_AB,c_AD,True,False,True,Probably same,1,3.141592653589793,461.1,3605.0,8.190077049719049,2022-06-07 06:30:44
221,Main,2,1,20,Letter designer,True,r_AD,r_BD,True,False,False,Sure different,1,3.141592653589793,461.1,3229.0,8.079927770758275,2022-06-07 06:30:44
222,Main,2,1,21,Letter designer,True,n_AD,n_AD,True,True,True,Sure same,1,3.141592653589793,461.1,3189.0,8.067462667010057,2022-06-07 06:30:44
223,Main,2,1,22,Letter designer,True,j_AD,j_BD,True,False,False,Sure different,1,3.141592653589793,461.1,3200.0,8.070906088787819,2022-06-07 06:30:44
224,Main,2,1,23,Letter designer,True,z_BD,z_AD,True,False,False,Sure different,1,3.141592653589793,461.1,4542.0,8.421122722665503,2022-06-07 06:30:44
225,Main,2,1,24,Letter designer,True,t_AB,t_AD,True,False,True,Sure same,1,3.141592653589793,461.1,3560.0,8.177515823846075,2022-06-07 06:30:44
226,Main,2,1,25,Letter designer,True,c_AD,c_BC,True,True,False,Sure different,1,3.141592653589793,461.1,3311.0,8.105005537547246,2022-06-07 06:30:44
227,Main,2,1,26,Letter designer,True,b_AD,b_BD,True,False,False,Probably different,1,3.141592653589793,461.1,3790.0,8.240121298076472,2022-06-07 06:30:44
228,Main,2,1,27,Letter designer,True,z_AB,z_AD,True,False,True,Sure same,1,3.141592653589793,461.1,3124.0,8.046869510959576,2022-06-07 06:30:44
229,Main,2,1,28,Letter designer,True,j_AD,j_AD,True,True,True,Sure same,1,3.141592653589793,461.1,3199.0,8.070593539949519,2022-06-07 06:30:44
230,Main,2,1,29,Letter designer,True,r_AA,r_DD,False,True,False,Sure different,1,3.141592653589793,461.1,3191.0,8.068089626278244,2022-06-07 06:30:44
231,Main,2,1,30,Letter designer,True,r_AD,r_AD,True,True,True,Probably different,0,0.0,461.1,3320.0,8.107720061910534,2022-06-07 06:30:44
232,Main,2,1,31,Letter designer,True,r_AD,r_BC,True,True,False,Sure different,1,3.141592653589793,461.1,3252.0,8.087025470667701,2022-06-07 06:30:44
233,Main,2,1,32,Letter designer,True,j_AD,j_BC,True,True,False,Sure different,1,3.141592653589793,461.1,3026.0,8.014996894348302,2022-06-07 06:30:44
234,Main,2,1,33,Letter designer,True,t_AD,t_AD,True,True,True,Probably same,1,3.141592653589793,461.1,4141.0,8.328692583545568,2022-06-07 06:30:44
235,Main,2,1,34,Letter designer,True,b_DD,b_AA,False,True,False,Sure different,1,3.141592653589793,461.1,3100.0,8.039157390473237,2022-06-07 06:30:44
236,Main,2,1,35,Letter designer,True,r_AD,r_AB,True,False,True,Probably same,1,3.141592653589793,461.1,3691.0,8.213652703029998,2022-06-07 06:30:44
237,Main,2,1,36,Letter designer,True,c_BD,c_AD,True,False,False,Sure different,1,3.141592653589793,461.1,4041.0,8.304247465078474,2022-06-07 06:30:44
238,Main,2,1,37,Letter designer,True,z_BC,z_AD,True,True,False,Sure different,1,3.141592653589793,461.1,3039.0,8.019283792916793,2022-06-07 06:30:44
239,Main,2,1,38,Letter designer,True,z_AD,z_AD,True,True,True,Sure same,1,3.141592653589793,461.1,3293.0,8.099554282376364,2022-06-07 06:30:44
240,Main,2,1,39,Letter designer,True,b_AA,b_AA,False,True,True,Sure same,1,3.141592653589793,461.1,3293.0,8.099554282376364,2022-06-07 06:30:44
241,Main,2,1,40,Letter designer,True,n_AD,n_AB,True,False,True,Probably same,1,3.141592653589793,461.1,3467.0,8.151044945685024,2022-06-07 06:30:44
242,Main,2,1,41,Letter designer,True,c_AA,c_AA,False,True,True,Probably same,1,3.141592653589793,461.1,3322.0,8.10832229017324,2022-06-07 06:30:44
243,Main,2,1,42,Letter designer,True,t_AA,t_AA,False,True,True,Sure same,1,3.141592653589793,461.1,3204.0,8.07215530818825,2022-06-07 06:30:44
244,Main,2,1,43,Letter designer,True,p_AD,p_AD,True,True,True,Probably same,1,3.141592653589793,461.1,3436.0,8.142063283104147,2022-06-07 06:30:44
245,Main,2,1,44,Letter designer,True,z_DD,z_AA,False,True,False,Sure different,1,3.141592653589793,461.1,2966.0,7.994969522697877,2022-06-07 06:30:44
246,Main,2,1,45,Letter designer,True,a_AD,a_AD,True,True,True,Sure same,1,3.141592653589793,461.1,3790.0,8.240121298076472,2022-06-07 06:30:44
247,Main,2,1,46,Letter designer,True,t_BD,t_AD,True,False,False,Sure same,0,0.0,461.1,3137.0,8.051022208190679,2022-06-07 06:30:44
248,Main,2,1,47,Letter designer,True,h_BD,h_AD,True,False,False,Sure different,1,3.141592653589793,461.1,3004.0,8.007700012884026,2022-06-07 06:30:44
249,Main,2,1,48,Letter designer,True,z_AA,z_AA,False,True,True,Sure same,1,3.141592653589793,461.1,3113.0,8.043342170441608,2022-06-07 06:30:44
250,Main,2,1,49,Letter designer,True,q_DD,q_AA,False,True,False,Sure different,1,3.141592653589793,461.1,3105.0,8.040768994367578,2022-06-07 06:30:44
251,Main,2,1,50,Letter designer,True,e_AB,e_AD,True,False,True,Probably same,1,3.141592653589793,461.1,3849.0,8.255568653283746,2022-06-07 06:30:44
252,Main,2,1,51,Letter designer,True,q_BC,q_AD,True,True,False,Sure same,0,0.0,461.1,3135.0,8.050384453067021,2022-06-07 06:30:44
253,Main,2,1,52,Letter designer,True,p_AA,p_DD,False,True,False,Sure different,1,3.141592653589793,461.1,3262.0,8.09009578318096,2022-06-07 06:30:44
254,Main,2,1,53,Letter designer,True,n_DD,n_AA,False,True,False,Sure different,1,3.141592653589793,461.1,3368.0,8.122074375362217,2022-06-07 06:30:44
255,Main,2,1,54,Letter designer,True,p_AA,p_AA,False,True,True,Sure same,1,3.141592653589793,461.1,3526.0,8.167919362957816,2022-06-07 06:30:44
256,Main,2,1,55,Letter designer,True,q_BD,q_AD,True,False,False,Probably same,0,0.0,461.1,3244.0,8.084562415235304,2022-06-07 06:30:44
257,Main,2,1,56,Letter designer,True,a_DD,a_AA,False,True,False,Sure different,1,3.141592653589793,461.1,2964.0,7.994294986415977,2022-06-07 06:30:44
258,Main,2,1,57,Letter designer,True,t_AA,t_DD,False,True,False,Sure different,1,3.141592653589793,461.1,2949.0,7.989221408815276,2022-06-07 06:30:44
259,Main,2,1,58,Letter designer,True,e_AD,e_AD,True,True,True,Probably same,1,3.141592653589793,461.1,3212.0,8.074649075066652,2022-06-07 06:30:44
260,Main,2,1,59,Letter designer,True,p_AD,p_BC,True,True,False,Sure different,1,3.141592653589793,461.1,3186.0,8.066521490469993,2022-06-07 06:30:44
261,Main,2,1,60,Letter designer,True,r_AA,r_AA,False,True,True,Sure same,1,3.141592653589793,461.1,3124.0,8.046869510959576,2022-06-07 06:30:44
262,Main,2,1,61,Letter designer,True,q_AA,q_AA,False,True,True,Probably same,1,3.141592653589793,461.1,3262.0,8.09009578318096,2022-06-07 06:30:44
263,Main,2,1,62,Letter designer,True,j_AB,j_AD,True,False,True,Sure same,1,3.141592653589793,461.1,3493.0,8.158516244806831,2022-06-07 06:30:44
264,Main,2,1,63,Letter designer,True,h_AA,h_AA,False,True,True,Sure same,1,3.141592653589793,461.1,3120.0,8.045588280803528,2022-06-07 06:30:44
265,Main,2,1,64,Letter designer,True,b_AD,b_BC,True,True,False,Probably different,1,3.141592653589793,461.1,3588.0,8.185350223178686,2022-06-07 06:30:44
266,Main,2,1,65,Letter designer,True,t_BC,t_AD,True,True,False,Sure different,1,3.141592653589793,461.1,3911.0,8.271548374755515,2022-06-07 06:30:44
267,Main,2,1,66,Letter designer,True,c_DD,c_AA,False,True,False,Sure different,1,3.141592653589793,461.1,3174.0,8.062747901086354,2022-06-07 06:30:44
268,Main,2,1,67,Letter designer,True,a_AA,a_AA,False,True,True,Probably same,1,3.141592653589793,461.1,3427.0,8.139440521874608,2022-06-07 06:30:44
269,Main,2,1,68,Letter designer,True,e_DD,e_AA,False,True,False,Sure different,1,3.141592653589793,461.1,3030.0,8.016317898503415,2022-06-07 06:30:44
270,Main,2,1,69,Letter designer,True,c_AD,c_AD,True,True,True,Probably same,1,3.141592653589793,461.1,3304.0,8.102889134640868,2022-06-07 06:30:44
271,Main,2,1,70,Letter designer,True,h_AD,h_AB,True,False,True,Sure same,1,3.141592653589793,461.1,3292.0,8.09925056179696,2022-06-07 06:30:44
272,Main,2,1,71,Letter designer,True,a_AD,a_AB,True,False,True,Sure same,1,3.141592653589793,461.1,3178.0,8.064007347096661,2022-06-07 06:30:44
273,Main,2,1,72,Letter designer,True,h_BC,h_AD,True,True,False,Sure different,1,3.141592653589793,461.1,2899.0,7.972121128921655,2022-06-07 06:30:44
274,Main,2,0,19,Letter designer,True,u_AD,u_BD,True,False,False,Probably different,1,3.141592653589793,725.0,3837.0,8.252446090246952,2022-06-07 06:30:44
275,Main,2,0,20,Letter designer,True,i_AD,i_AD,True,True,True,Sure same,1,3.141592653589793,800.0,3998.0,8.293549515060345,2022-06-07 06:30:44
276,Main,3,0,1,Non-designer,False,d_BC,d_AD,True,True,False,Probably different,1,3.141592653589793,800.0,8057.0,8.994296557777195,2022-06-07 01:48:54
277,Main,3,0,2,Non-designer,False,u_AA,u_DD,False,True,False,Sure different,1,3.141592653589793,800.0,4570.0,8.42726848388825,2022-06-07 01:48:54
278,Main,3,0,3,Non-designer,False,d_DD,d_AA,False,True,False,Sure different,1,3.141592653589793,800.0,3432.0,8.140898460607852,2022-06-07 01:48:54
279,Main,3,0,4,Non-designer,False,d_AA,d_AA,False,True,True,Sure same,1,3.141592653589793,725.0,4993.0,8.51579221050061,2022-06-07 01:48:54
280,Main,3,0,5,Non-designer,False,i_AA,i_DD,False,True,False,Sure different,1,3.141592653589793,650.0,3480.0,8.15478757276852,2022-06-07 01:48:54
281,Main,3,0,6,Non-designer,False,d_BC,d_AD,True,True,False,Probably different,1,3.141592653589793,575.0,4337.0,8.374938143835367,2022-06-07 01:48:54
282,Main,3,0,7,Non-designer,False,i_BD,i_AD,True,False,False,Probably same,0,0.0,500.0,3733.0,8.224967478914584,2022-06-07 01:48:54
283,Main,3,0,8,Non-designer,False,d_BD,d_AD,True,False,False,Sure same,0,0.0,425.0,3312.0,8.10530751550515,2022-06-07 01:48:54
284,Main,3,0,9,Non-designer,False,u_AB,u_AD,True,False,True,Sure same,1,3.141592653589793,350.0,2853.0,7.9561263512135,2022-06-07 01:48:54
285,Main,3,0,10,Non-designer,False,d_AB,d_AD,True,False,True,Probably different,0,0.0,275.0,3533.0,8.169902647359145,2022-06-07 01:48:54
286,Main,3,0,11,Non-designer,False,u_AD,u_BC,True,True,False,Sure same,0,0.0,200.0,3008.0,8.00903068506973,2022-06-07 01:48:54
287,Main,3,0,12,Non-designer,False,u_AA,u_AA,False,True,True,Sure same,1,3.141592653589793,200.0,2290.0,7.736307096548285,2022-06-07 01:48:54
288,Main,3,0,13,Non-designer,False,i_BC,i_AD,True,True,False,Sure same,0,0.0,275.0,2474.0,7.813591552952433,2022-06-07 01:48:54
289,Main,3,0,14,Non-designer,False,i_AD,i_AB,True,False,True,Sure different,0,0.0,350.0,4373.0,8.38320455141292,2022-06-07 01:48:54
290,Main,3,0,15,Non-designer,False,u_AD,u_AD,True,True,True,Probably same,1,3.141592653589793,425.0,3383.0,8.12651816878071,2022-06-07 01:48:54
291,Main,3,0,16,Non-designer,False,u_DD,u_AA,False,True,False,Sure different,1,3.141592653589793,500.0,4141.0,8.328692583545568,2022-06-07 01:48:54
292,Main,3,0,17,Non-designer,False,d_AD,d_AD,True,True,True,Probably different,0,0.0,575.0,4245.0,8.353497098745448,2022-06-07 01:48:54
293,Main,3,0,18,Non-designer,False,i_AA,i_AA,False,True,True,Sure same,1,3.141592653589793,650.0,3242.0,8.08394570229562,2022-06-07 01:48:54
294,Main,3,1,1,Non-designer,False,a_BD,a_AD,True,False,False,Probably same,0,0.0,422.2,5755.0,8.657824321155983,2022-06-07 01:48:54
295,Main,3,1,2,Non-designer,False,q_AA,q_AA,False,True,True,Sure same,1,3.141592653589793,422.2,2976.0,7.998335395952982,2022-06-07 01:48:54
296,Main,3,1,3,Non-designer,False,j_AD,j_BD,True,False,False,Sure same,0,0.0,422.2,2738.0,7.914983005848394,2022-06-07 01:48:54
297,Main,3,1,4,Non-designer,False,j_AD,j_AD,True,True,True,Sure same,1,3.141592653589793,422.2,2764.0,7.92443418488756,2022-06-07 01:48:54
298,Main,3,1,5,Non-designer,False,a_AD,a_AD,True,True,True,Sure same,1,3.141592653589793,422.2,2934.0,7.984121958702927,2022-06-07 01:48:54
299,Main,3,1,6,Non-designer,False,c_AD,c_AD,True,True,True,Sure same,1,3.141592653589793,422.2,2633.0,7.87587915949631,2022-06-07 01:48:54
300,Main,3,1,7,Non-designer,False,n_AB,n_AD,True,False,True,Probably same,1,3.141592653589793,422.2,5187.0,8.553910774351401,2022-06-07 01:48:54
301,Main,3,1,8,Non-designer,False,q_BD,q_AD,True,False,False,Probably different,1,3.141592653589793,422.2,2931.0,7.983098940710892,2022-06-07 01:48:54
302,Main,3,1,9,Non-designer,False,q_AB,q_AD,True,False,True,Sure same,1,3.141592653589793,422.2,3228.0,8.07961802938984,2022-06-07 01:48:54
303,Main,3,1,10,Non-designer,False,p_AA,p_DD,False,True,False,Probably different,1,3.141592653589793,422.2,3248.0,8.085794701281568,2022-06-07 01:48:54
304,Main,3,1,11,Non-designer,False,t_AD,t_AD,True,True,True,Probably different,0,0.0,422.2,3573.0,8.181160858023409,2022-06-07 01:48:54
305,Main,3,1,12,Non-designer,False,t_BD,t_AD,True,False,False,Probably different,1,3.141592653589793,422.2,2993.0,8.0040315078527,2022-06-07 01:48:54
306,Main,3,1,13,Non-designer,False,r_AD,r_AD,True,True,True,Sure same,1,3.141592653589793,422.2,3394.0,8.129764445794171,2022-06-07 01:48:54
307,Main,3,1,14,Non-designer,False,n_AA,n_AA,False,True,True,Sure same,1,3.141592653589793,422.2,2605.0,7.865187954187467,2022-06-07 01:48:54
308,Main,3,1,15,Non-designer,False,a_DD,a_AA,False,True,False,Sure different,1,3.141592653589793,422.2,3041.0,8.019941687677365,2022-06-07 01:48:54
309,Main,3,1,16,Non-designer,False,t_BC,t_AD,True,True,False,Sure different,1,3.141592653589793,422.2,2998.0,8.005700678662542,2022-06-07 01:48:54
310,Main,3,1,17,Non-designer,False,e_AD,e_AD,True,True,True,Probably different,0,0.0,422.2,3404.0,8.132706489693264,2022-06-07 01:48:54
311,Main,3,1,18,Non-designer,False,p_AD,p_AD,True,True,True,Probably different,0,0.0,422.2,3125.0,8.047189562170502,2022-06-07 01:48:54
312,Main,3,1,19,Non-designer,False,r_AB,r_AD,True,False,True,Sure same,1,3.141592653589793,422.2,2953.0,7.990576881743923,2022-06-07 01:48:54
313,Main,3,1,20,Non-designer,False,p_AD,p_AB,True,False,True,Sure same,1,3.141592653589793,422.2,2829.0,7.947678571301568,2022-06-07 01:48:54
314,Main,3,1,21,Non-designer,False,z_BC,z_AD,True,True,False,Sure same,0,0.0,422.2,2816.0,7.943072717277933,2022-06-07 01:48:54
315,Main,3,1,22,Non-designer,False,e_BC,e_AD,True,True,False,Probably same,0,0.0,422.2,3360.0,8.11969625295725,2022-06-07 01:48:54
316,Main,3,1,23,Non-designer,False,t_AA,t_DD,False,True,False,Sure different,1,3.141592653589793,422.2,5093.0,8.535622326884605,2022-06-07 01:48:54
317,Main,3,1,24,Non-designer,False,b_AA,b_AA,False,True,True,Probably different,0,0.0,422.2,3134.0,8.050065422915965,2022-06-07 01:48:54
318,Main,3,1,25,Non-designer,False,q_AD,q_BC,True,True,False,Probably different,1,3.141592653589793,422.2,3050.0,8.022896869601457,2022-06-07 01:48:54
319,Main,3,1,26,Non-designer,False,c_BD,c_AD,True,False,False,Sure different,1,3.141592653589793,422.2,3157.0,8.057377488557991,2022-06-07 01:48:54
320,Main,3,1,27,Non-designer,False,z_DD,z_AA,False,True,False,Sure different,1,3.141592653589793,422.2,2708.0,7.903965634032166,2022-06-07 01:48:54
321,Main,3,1,28,Non-designer,False,t_AB,t_AD,True,False,True,Probably different,0,0.0,422.2,3790.0,8.240121298076472,2022-06-07 01:48:54
322,Main,3,1,29,Non-designer,False,b_AD,b_BC,True,True,False,Probably different,1,3.141592653589793,422.2,3674.0,8.20903626577507,2022-06-07 01:48:54
323,Main,3,1,30,Non-designer,False,b_AD,b_AD,True,True,True,Probably same,1,3.141592653589793,422.2,3647.0,8.20166019080868,2022-06-07 01:48:54
324,Main,3,1,31,Non-designer,False,t_AA,t_AA,False,True,True,Probably different,0,0.0,422.2,3526.0,8.167919362957816,2022-06-07 01:48:54
325,Main,3,1,32,Non-designer,False,b_AD,b_BD,True,False,False,Sure different,1,3.141592653589793,422.2,3209.0,8.073714641109857,2022-06-07 01:48:54
326,Main,3,1,33,Non-designer,False,r_AD,r_BD,True,False,False,Probably different,1,3.141592653589793,422.2,3646.0,8.201385955238608,2022-06-07 01:48:54
327,Main,3,1,34,Non-designer,False,r_DD,r_AA,False,True,False,Sure different,1,3.141592653589793,422.2,2941.0,7.9865049385539955,2022-06-07 01:48:54
328,Main,3,1,35,Non-designer,False,h_BD,h_AD,True,False,False,Sure different,1,3.141592653589793,422.2,3323.0,8.108623268354595,2022-06-07 01:48:54
329,Main,3,1,36,Non-designer,False,r_AA,r_AA,False,True,True,Sure same,1,3.141592653589793,422.2,3550.0,8.174702882469461,2022-06-07 01:48:54
330,Main,3,1,37,Non-designer,False,c_AB,c_AD,True,False,True,Probably same,1,3.141592653589793,422.2,3516.0,8.165079258805068,2022-06-07 01:48:54
331,Main,3,1,38,Non-designer,False,a_AA,a_AA,False,True,True,Probably same,1,3.141592653589793,422.2,3607.0,8.19063168090354,2022-06-07 01:48:54
332,Main,3,1,39,Non-designer,False,p_AD,p_BD,True,False,False,Sure different,1,3.141592653589793,422.2,3018.0,8.012349639327795,2022-06-07 01:48:54
333,Main,3,1,40,Non-designer,False,z_AD,z_BD,True,False,False,Sure different,1,3.141592653589793,422.2,2582.0,7.856319571406588,2022-06-07 01:48:54
334,Main,3,1,41,Non-designer,False,a_AD,a_AB,True,False,True,Probably same,1,3.141592653589793,422.2,3403.0,8.132412674500905,2022-06-07 01:48:54
335,Main,3,1,42,Non-designer,False,a_AD,a_BC,True,True,False,Probably different,1,3.141592653589793,422.2,3017.0,8.012018239159062,2022-06-07 01:48:54
336,Main,3,1,43,Non-designer,False,n_BD,n_AD,True,False,False,Sure same,0,0.0,422.2,3218.0,8.076515327552329,2022-06-07 01:48:54
337,Main,3,1,44,Non-designer,False,z_AA,z_AA,False,True,True,Probably same,1,3.141592653589793,422.2,3091.0,8.036249942132116,2022-06-07 01:48:54
338,Main,3,1,45,Non-designer,False,j_BC,j_AD,True,True,False,Probably different,1,3.141592653589793,422.2,3470.0,8.151909872940905,2022-06-07 01:48:54
339,Main,3,1,46,Non-designer,False,q_AD,q_AD,True,True,True,Probably same,1,3.141592653589793,422.2,3251.0,8.086717920303906,2022-06-07 01:48:54
340,Main,3,1,47,Non-designer,False,j_AA,j_AA,False,True,True,Sure same,1,3.141592653589793,422.2,3211.0,8.074337694089515,2022-06-07 01:48:54
341,Main,3,1,48,Non-designer,False,n_AD,n_AD,True,True,True,Sure same,1,3.141592653589793,422.2,2817.0,7.943427767876373,2022-06-07 01:48:54
342,Main,3,1,49,Non-designer,False,z_AD,z_AB,True,False,True,Probably different,0,0.0,422.2,3518.0,8.165647925297504,2022-06-07 01:48:54
343,Main,3,1,50,Non-designer,False,j_AB,j_AD,True,False,True,Probably same,1,3.141592653589793,422.2,3495.0,8.15908865466791,2022-06-07 01:48:54
344,Main,3,1,51,Non-designer,False,n_DD,n_AA,False,True,False,Sure different,1,3.141592653589793,422.2,3055.0,8.024534871605695,2022-06-07 01:48:54
345,Main,3,1,52,Non-designer,False,r_AD,r_BC,True,True,False,Sure different,1,3.141592653589793,422.2,3103.0,8.04012466444838,2022-06-07 01:48:54
346,Main,3,1,53,Non-designer,False,b_AA,b_DD,False,True,False,Sure different,1,3.141592653589793,422.2,2343.0,7.759187438507795,2022-06-07 01:48:54
347,Main,3,1,54,Non-designer,False,e_AD,e_BD,True,False,False,Probably different,1,3.141592653589793,422.2,3449.0,8.145839612936841,2022-06-07 01:48:54
348,Main,3,1,55,Non-designer,False,j_DD,j_AA,False,True,False,Sure different,1,3.141592653589793,422.2,2426.0,7.793999089503996,2022-06-07 01:48:54
349,Main,3,1,56,Non-designer,False,p_BC,p_AD,True,True,False,Sure different,1,3.141592653589793,422.2,2571.0,7.852050207265889,2022-06-07 01:48:54
350,Main,3,1,57,Non-designer,False,h_AA,h_AA,False,True,True,Probably same,1,3.141592653589793,422.2,3259.0,8.089175678837561,2022-06-07 01:48:54
351,Main,3,1,58,Non-designer,False,h_AA,h_DD,False,True,False,Sure different,1,3.141592653589793,422.2,2271.0,7.7279755421055585,2022-06-07 01:48:54
352,Main,3,1,59,Non-designer,False,h_AD,h_BC,True,True,False,Sure different,1,3.141592653589793,422.2,2737.0,7.914617709040679,2022-06-07 01:48:54
353,Main,3,1,60,Non-designer,False,h_AB,h_AD,True,False,True,Probably same,1,3.141592653589793,422.2,3183.0,8.065579427282092,2022-06-07 01:48:54
354,Main,3,1,61,Non-designer,False,z_AD,z_AD,True,True,True,Probably same,1,3.141592653589793,422.2,2921.0,7.979681302387741,2022-06-07 01:48:54
355,Main,3,1,62,Non-designer,False,h_AD,h_AD,True,True,True,Probably same,1,3.141592653589793,422.2,2996.0,8.005033344637111,2022-06-07 01:48:54
356,Main,3,1,63,Non-designer,False,e_AA,e_AA,False,True,True,Probably same,1,3.141592653589793,422.2,3230.0,8.080237416216702,2022-06-07 01:48:54
357,Main,3,1,64,Non-designer,False,c_AA,c_AA,False,True,True,Probably same,1,3.141592653589793,422.2,2679.0,7.893198869544609,2022-06-07 01:48:54
358,Main,3,1,65,Non-designer,False,b_AB,b_AD,True,False,True,Probably different,0,0.0,422.2,3727.0,8.223358899479258,2022-06-07 01:48:54
359,Main,3,1,66,Non-designer,False,p_AA,p_AA,False,True,True,Probably same,1,3.141592653589793,422.2,3516.0,8.165079258805068,2022-06-07 01:48:54
360,Main,3,1,67,Non-designer,False,e_AD,e_AB,True,False,True,Sure different,0,0.0,422.2,2960.0,7.992944547318106,2022-06-07 01:48:54
361,Main,3,1,68,Non-designer,False,c_DD,c_AA,False,True,False,Sure different,1,3.141592653589793,422.2,2332.0,7.754481547470383,2022-06-07 01:48:54
362,Main,3,1,69,Non-designer,False,q_DD,q_AA,False,True,False,Sure different,1,3.141592653589793,422.2,2783.0,7.931284761525891,2022-06-07 01:48:54
363,Main,3,1,70,Non-designer,False,e_AA,e_DD,False,True,False,Sure different,1,3.141592653589793,422.2,2419.0,7.791109510610028,2022-06-07 01:48:54
364,Main,3,1,71,Non-designer,False,c_BC,c_AD,True,True,False,Sure different,1,3.141592653589793,422.2,2598.0,7.862497197230545,2022-06-07 01:48:54
365,Main,3,1,72,Non-designer,False,n_BC,n_AD,True,True,False,Sure different,1,3.141592653589793,422.2,2607.0,7.865955413933502,2022-06-07 01:48:54
366,Main,3,0,19,Non-designer,False,u_AD,u_BD,True,False,False,Probably different,1,3.141592653589793,725.0,5268.0,8.569406062863171,2022-06-07 01:48:54
367,Main,3,0,20,Non-designer,False,i_AD,i_AD,True,True,True,Sure same,1,3.141592653589793,800.0,3255.0,8.08794755464267,2022-06-07 01:48:54
368,Main,4,0,1,Graphic designer,True,d_BC,d_AD,True,True,False,Sure different,1,3.141592653589793,800.0,13249.0,9.491677356868124,2022-06-07 01:42:23
369,Main,4,0,2,Graphic designer,True,u_AA,u_DD,False,True,False,Sure different,1,3.141592653589793,800.0,4152.0,8.331345424845724,2022-06-07 01:42:23
370,Main,4,0,3,Graphic designer,True,d_DD,d_AA,False,True,False,Sure different,1,3.141592653589793,800.0,4084.0,8.314832179284556,2022-06-07 01:42:23
371,Main,4,0,4,Graphic designer,True,d_AA,d_AA,False,True,True,Sure same,1,3.141592653589793,725.0,3783.0,8.23827262463303,2022-06-07 01:42:23
372,Main,4,0,5,Graphic designer,True,i_AA,i_DD,False,True,False,Sure different,1,3.141592653589793,650.0,3402.0,8.132118772955806,2022-06-07 01:42:23
373,Main,4,0,6,Graphic designer,True,d_AD,d_BC,True,True,False,Sure different,1,3.141592653589793,575.0,3694.0,8.214465160759186,2022-06-07 01:42:23
374,Main,4,0,7,Graphic designer,True,i_BD,i_AD,True,False,False,Sure different,1,3.141592653589793,500.0,3355.0,8.118207049405783,2022-06-07 01:42:23
375,Main,4,0,8,Graphic designer,True,d_BD,d_AD,True,False,False,Sure different,1,3.141592653589793,425.0,3025.0,8.014666370464942,2022-06-07 01:42:23
376,Main,4,0,9,Graphic designer,True,u_AB,u_AD,True,False,True,Sure same,1,3.141592653589793,350.0,3369.0,8.122371243406553,2022-06-07 01:42:23
377,Main,4,0,10,Graphic designer,True,d_AB,d_AD,True,False,True,Sure same,1,3.141592653589793,275.0,3527.0,8.168202930236053,2022-06-07 01:42:23
378,Main,4,0,11,Graphic designer,True,u_AD,u_BC,True,True,False,Sure different,1,3.141592653589793,200.0,2761.0,7.923348211930154,2022-06-07 01:42:23
379,Main,4,0,12,Graphic designer,True,u_AA,u_AA,False,True,True,Sure same,1,3.141592653589793,200.0,4154.0,8.331827004436057,2022-06-07 01:42:23
380,Main,4,0,13,Graphic designer,True,i_AD,i_BC,True,True,False,Probably different,1,3.141592653589793,275.0,5029.0,8.522976436171964,2022-06-07 01:42:23
381,Main,4,0,14,Graphic designer,True,i_AD,i_AB,True,False,True,Probably same,1,3.141592653589793,350.0,5414.0,8.596743470174246,2022-06-07 01:42:23
382,Main,4,0,15,Graphic designer,True,u_AD,u_AD,True,True,True,Sure same,1,3.141592653589793,425.0,3588.0,8.185350223178686,2022-06-07 01:42:23
383,Main,4,0,16,Graphic designer,True,u_AA,u_DD,False,True,False,Sure different,1,3.141592653589793,500.0,3099.0,8.038834757787749,2022-06-07 01:42:23
384,Main,4,0,17,Graphic designer,True,d_AD,d_AD,True,True,True,Sure same,1,3.141592653589793,575.0,4023.0,8.299783171949787,2022-06-07 01:42:23
385,Main,4,0,18,Graphic designer,True,i_AA,i_AA,False,True,True,Probably same,1,3.141592653589793,650.0,5225.0,8.561210076833012,2022-06-07 01:42:23
386,Main,4,1,1,Graphic designer,True,c_AA,c_DD,False,True,False,Sure different,1,3.141592653589793,150.0,6248.0,8.740016691519521,2022-06-07 01:42:23
387,Main,4,1,2,Graphic designer,True,t_AD,t_AB,True,False,True,Probably same,1,3.141592653589793,150.0,5152.0,8.54714026778419,2022-06-07 01:42:23
388,Main,4,1,3,Graphic designer,True,p_AA,p_AA,False,True,True,Sure same,1,3.141592653589793,150.0,3591.0,8.186185994226083,2022-06-07 01:42:23
389,Main,4,1,4,Graphic designer,True,j_AA,j_AA,False,True,True,Sure same,1,3.141592653589793,150.0,4286.0,8.363109176033522,2022-06-07 01:42:23
390,Main,4,1,5,Graphic designer,True,j_AD,j_AD,True,True,True,Probably same,1,3.141592653589793,150.0,3944.0,8.279950715722526,2022-06-07 01:42:23
391,Main,4,1,6,Graphic designer,True,b_BC,b_AD,True,True,False,Sure different,1,3.141592653589793,150.0,2721.0,7.908754738783246,2022-06-07 01:42:23
392,Main,4,1,7,Graphic designer,True,q_AD,q_AD,True,True,True,Probably same,1,3.141592653589793,150.0,4271.0,8.359603270841466,2022-06-07 01:42:23
393,Main,4,1,8,Graphic designer,True,p_AB,p_AD,True,False,True,Sure same,1,3.141592653589793,150.0,3965.0,8.285261134068948,2022-06-07 01:42:23
394,Main,4,1,9,Graphic designer,True,a_AB,a_AD,True,False,True,Sure same,1,3.141592653589793,150.0,2962.0,7.993619994827744,2022-06-07 01:42:23
395,Main,4,1,10,Graphic designer,True,b_BD,b_AD,True,False,False,Sure different,1,3.141592653589793,150.0,2898.0,7.971776122880628,2022-06-07 01:42:23
396,Main,4,1,11,Graphic designer,True,b_AA,b_AA,False,True,True,Sure same,1,3.141592653589793,150.0,3688.0,8.212839584676484,2022-06-07 01:42:23
397,Main,4,1,12,Graphic designer,True,h_AA,h_DD,False,True,False,Sure different,1,3.141592653589793,150.0,2647.0,7.881182202227102,2022-06-07 01:42:23
398,Main,4,1,13,Graphic designer,True,z_AD,z_AB,True,False,True,Sure same,1,3.141592653589793,150.0,2770.0,7.926602599181384,2022-06-07 01:42:23
399,Main,4,1,14,Graphic designer,True,p_BD,p_AD,True,False,False,Probably different,1,3.141592653589793,150.0,8323.0,9.026778045746095,2022-06-07 01:42:23
400,Main,4,1,15,Graphic designer,True,c_AD,c_BC,True,True,False,Probably different,1,3.141592653589793,150.0,4808.0,8.478036476215044,2022-06-07 01:42:23
401,Main,4,1,16,Graphic designer,True,z_AD,z_BD,True,False,False,Sure different,1,3.141592653589793,150.0,3156.0,8.057060681965766,2022-06-07 01:42:23
402,Main,4,1,17,Graphic designer,True,e_AD,e_BC,True,True,False,Sure same,0,0.0,150.0,3053.0,8.023879992734878,2022-06-07 01:42:23
403,Main,4,1,18,Graphic designer,True,h_BD,h_AD,True,False,False,Sure different,1,3.141592653589793,150.0,2947.0,7.988542982737695,2022-06-07 01:42:23
404,Main,4,1,19,Graphic designer,True,j_AD,j_BC,True,True,False,Sure different,1,3.141592653589793,150.0,2996.0,8.005033344637111,2022-06-07 01:42:23
405,Main,4,1,20,Graphic designer,True,e_AD,e_BD,True,False,False,Probably same,0,0.0,150.0,4850.0,8.48673398393153,2022-06-07 01:42:23
406,Main,4,1,21,Graphic designer,True,e_AA,e_AA,False,True,True,Sure different,0,0.0,150.0,4509.0,8.413830678421084,2022-06-07 01:42:23
407,Main,4,1,22,Graphic designer,True,a_DD,a_AA,False,True,False,Sure different,1,3.141592653589793,150.0,2654.0,7.8838232148921525,2022-06-07 01:42:23
408,Main,4,1,23,Graphic designer,True,h_AB,h_AD,True,False,True,Sure same,1,3.141592653589793,150.0,3429.0,8.14002395246292,2022-06-07 01:42:23
409,Main,4,1,24,Graphic designer,True,t_AD,t_AD,True,True,True,Probably same,1,3.141592653589793,150.0,4161.0,8.333510708982942,2022-06-07 01:42:23
410,Main,4,1,25,Graphic designer,True,r_AA,r_AA,False,True,True,Sure same,1,3.141592653589793,150.0,4004.0,8.295049140435111,2022-06-07 01:42:23
411,Main,4,1,26,Graphic designer,True,a_AA,a_AA,False,True,True,Probably different,0,0.0,150.0,4186.0,8.339500903005945,2022-06-07 01:42:23
412,Main,4,1,27,Graphic designer,True,p_AA,p_DD,False,True,False,Sure different,1,3.141592653589793,150.0,3010.0,8.009695357742922,2022-06-07 01:42:23
413,Main,4,1,28,Graphic designer,True,b_AA,b_DD,False,True,False,Sure different,1,3.141592653589793,150.0,2642.0,7.879291485082271,2022-06-07 01:42:23
414,Main,4,1,29,Graphic designer,True,r_BD,r_AD,True,False,False,Sure same,0,0.0,150.0,3019.0,8.012680929706839,2022-06-07 01:42:23
415,Main,4,1,30,Graphic designer,True,e_AD,e_AB,True,False,True,Probably same,1,3.141592653589793,150.0,3706.0,8.217708406845306,2022-06-07 01:42:23
416,Main,4,1,31,Graphic designer,True,q_AA,q_AA,False,True,True,Probably same,1,3.141592653589793,150.0,5449.0,8.603187384583098,2022-06-07 01:42:23
417,Main,4,1,32,Graphic designer,True,z_DD,z_AA,False,True,False,Sure different,1,3.141592653589793,150.0,2484.0,7.81762544305337,2022-06-07 01:42:23
418,Main,4,1,33,Graphic designer,True,e_AD,e_AD,True,True,True,Sure same,1,3.141592653589793,150.0,3112.0,8.043020885298283,2022-06-07 01:42:23
419,Main,4,1,34,Graphic designer,True,b_AD,b_AD,True,True,True,Sure same,1,3.141592653589793,150.0,2922.0,7.980023592310645,2022-06-07 01:42:23
420,Main,4,1,35,Graphic designer,True,n_AA,n_AA,False,True,True,Probably different,0,0.0,150.0,4841.0,8.484876589939695,2022-06-07 01:42:23
421,Main,4,1,36,Graphic designer,True,z_AD,z_AD,True,True,True,Probably different,0,0.0,150.0,3469.0,8.15162164696975,2022-06-07 01:42:23
422,Main,4,1,37,Graphic designer,True,t_AD,t_BC,True,True,False,Probably same,0,0.0,150.0,8608.0,9.060447282401565,2022-06-07 01:42:23
423,Main,4,1,38,Graphic designer,True,q_AA,q_DD,False,True,False,Sure different,1,3.141592653589793,150.0,3016.0,8.011686729127847,2022-06-07 01:42:23
424,Main,4,1,39,Graphic designer,True,e_AA,e_DD,False,True,False,Sure different,1,3.141592653589793,150.0,3533.0,8.169902647359145,2022-06-07 01:42:23
425,Main,4,1,40,Graphic designer,True,p_AD,p_BC,True,True,False,Sure different,1,3.141592653589793,150.0,3029.0,8.015987811027237,2022-06-07 01:42:23
426,Main,4,1,41,Graphic designer,True,r_AB,r_AD,True,False,True,Probably same,1,3.141592653589793,150.0,3595.0,8.187299270155147,2022-06-07 01:42:23
427,Main,4,1,42,Graphic designer,True,c_AB,c_AD,True,False,True,Probably different,0,0.0,150.0,4031.0,8.301769763117166,2022-06-07 01:42:23
428,Main,4,1,43,Graphic designer,True,h_AA,h_AA,False,True,True,Sure same,1,3.141592653589793,150.0,2825.0,7.946263643580541,2022-06-07 01:42:23
429,Main,4,1,44,Graphic designer,True,p_AD,p_AD,True,True,True,Probably same,1,3.141592653589793,150.0,4319.0,8.3707791729607,2022-06-07 01:42:23
430,Main,4,1,45,Graphic designer,True,n_DD,n_AA,False,True,False,Probably different,1,3.141592653589793,150.0,3928.0,8.275885669474356,2022-06-07 01:42:23
431,Main,4,1,46,Graphic designer,True,c_AA,c_AA,False,True,True,Probably different,0,0.0,150.0,3207.0,8.073091199693154,2022-06-07 01:42:23
432,Main,4,1,47,Graphic designer,True,a_AD,a_BD,True,False,False,Sure different,1,3.141592653589793,150.0,2913.0,7.976938756959434,2022-06-07 01:42:23
433,Main,4,1,48,Graphic designer,True,r_AD,r_AD,True,True,True,Sure same,1,3.141592653589793,150.0,3929.0,8.27614021955846,2022-06-07 01:42:23
434,Main,4,1,49,Graphic designer,True,c_AD,c_AD,True,True,True,Probably same,1,3.141592653589793,150.0,4129.0,8.32579052588609,2022-06-07 01:42:23
435,Main,4,1,50,Graphic designer,True,r_AA,r_DD,False,True,False,Sure different,1,3.141592653589793,150.0,3127.0,8.047829357457841,2022-06-07 01:42:23
436,Main,4,1,51,Graphic designer,True,j_BD,j_AD,True,False,False,Probably same,0,0.0,150.0,4740.0,8.463792414689122,2022-06-07 01:42:23
437,Main,4,1,52,Graphic designer,True,a_AD,a_AD,True,True,True,Probably same,1,3.141592653589793,150.0,3156.0,8.057060681965766,2022-06-07 01:42:23
438,Main,4,1,53,Graphic designer,True,r_AD,r_BC,True,True,False,Probably different,1,3.141592653589793,150.0,5036.0,8.524367395164237,2022-06-07 01:42:23
439,Main,4,1,54,Graphic designer,True,n_AD,n_AB,True,False,True,Probably same,1,3.141592653589793,150.0,4720.0,8.459564078579602,2022-06-07 01:42:23
440,Main,4,1,55,Graphic designer,True,q_BD,q_AD,True,False,False,Probably different,1,3.141592653589793,150.0,9619.0,9.171495588152615,2022-06-07 01:42:23
441,Main,4,1,56,Graphic designer,True,h_AD,h_BC,True,True,False,Sure different,1,3.141592653589793,150.0,2992.0,8.003697339094368,2022-06-07 01:42:23
442,Main,4,1,57,Graphic designer,True,j_DD,j_AA,False,True,False,Sure different,1,3.141592653589793,150.0,3059.0,8.025843344150903,2022-06-07 01:42:23
443,Main,4,1,58,Graphic designer,True,t_DD,t_AA,False,True,False,Sure different,1,3.141592653589793,150.0,3269.0,8.092239406724211,2022-06-07 01:42:23
444,Main,4,1,59,Graphic designer,True,q_BC,q_AD,True,True,False,Probably same,0,0.0,150.0,5053.0,8.527737405291909,2022-06-07 01:42:23
445,Main,4,1,60,Graphic designer,True,b_AB,b_AD,True,False,True,Probably different,0,0.0,150.0,4095.0,8.31752199628717,2022-06-07 01:42:23
446,Main,4,1,61,Graphic designer,True,c_BD,c_AD,True,False,False,Probably same,0,0.0,150.0,4705.0,8.45638105201948,2022-06-07 01:42:23
447,Main,4,1,62,Graphic designer,True,n_AD,n_BD,True,False,False,Sure different,1,3.141592653589793,150.0,2876.0,7.964155718840937,2022-06-07 01:42:23
448,Main,4,1,63,Graphic designer,True,h_AD,h_AD,True,True,True,Probably same,1,3.141592653589793,150.0,6174.0,8.728102205062104,2022-06-07 01:42:23
449,Main,4,1,64,Graphic designer,True,t_AD,t_BD,True,False,False,Probably different,1,3.141592653589793,150.0,3567.0,8.17948018535889,2022-06-07 01:42:23
450,Main,4,1,65,Graphic designer,True,a_AD,a_BC,True,True,False,Sure different,1,3.141592653589793,150.0,2968.0,7.995643604287271,2022-06-07 01:42:23
451,Main,4,1,66,Graphic designer,True,n_AD,n_AD,True,True,True,Probably same,1,3.141592653589793,150.0,3968.0,8.286017468404763,2022-06-07 01:42:23
452,Main,4,1,67,Graphic designer,True,j_AD,j_AB,True,False,True,Probably different,0,0.0,150.0,3342.0,8.114324709155339,2022-06-07 01:42:23
453,Main,4,1,68,Graphic designer,True,t_AA,t_AA,False,True,True,Probably different,0,0.0,150.0,4254.0,8.355614995760183,2022-06-07 01:42:23
454,Main,4,1,69,Graphic designer,True,z_AD,z_BC,True,True,False,Sure different,1,3.141592653589793,150.0,2664.0,7.88758403166028,2022-06-07 01:42:23
455,Main,4,1,70,Graphic designer,True,q_AB,q_AD,True,False,True,Probably different,0,0.0,150.0,3833.0,8.251403065380556,2022-06-07 01:42:23
456,Main,4,1,71,Graphic designer,True,z_AA,z_AA,False,True,True,Probably same,1,3.141592653589793,150.0,4495.0,8.410720946905721,2022-06-07 01:42:23
457,Main,4,1,72,Graphic designer,True,n_AD,n_BC,True,True,False,Sure different,1,3.141592653589793,150.0,2950.0,7.989560449333865,2022-06-07 01:42:23
458,Main,4,0,19,Graphic designer,True,u_BD,u_AD,True,False,False,Sure different,1,3.141592653589793,725.0,3804.0,8.24380842366528,2022-06-07 01:42:23
459,Main,4,0,20,Graphic designer,True,i_AD,i_AD,True,True,True,Sure same,1,3.141592653589793,800.0,6292.0,8.747034264178168,2022-06-07 01:42:23
460,Main,5,0,1,Other designer,True,d_AD,d_BC,True,True,False,Sure different,1,3.141592653589793,800.0,27524.0,10.22281363032237,2022-06-06 23:29:06
461,Main,5,0,2,Other designer,True,u_DD,u_AA,False,True,False,Sure different,1,3.141592653589793,800.0,10010.0,9.211339872309265,2022-06-06 23:29:06
462,Main,5,0,3,Other designer,True,d_DD,d_AA,False,True,False,Sure different,1,3.141592653589793,800.0,4617.0,8.43750042250699,2022-06-06 23:29:06
463,Main,5,0,4,Other designer,True,d_AA,d_AA,False,True,True,Sure same,1,3.141592653589793,725.0,4490.0,8.4096079807363,2022-06-06 23:29:06
464,Main,5,0,5,Other designer,True,i_AA,i_DD,False,True,False,Sure different,1,3.141592653589793,650.0,5031.0,8.523374050491318,2022-06-06 23:29:06
465,Main,5,0,6,Other designer,True,d_BC,d_AD,True,True,False,Probably same,0,0.0,575.0,5900.0,8.68270762989381,2022-06-06 23:29:06
466,Main,5,0,7,Other designer,True,i_BD,i_AD,True,False,False,Sure different,1,3.141592653589793,500.0,3662.0,8.205764725234456,2022-06-06 23:29:06
467,Main,5,0,8,Other designer,True,d_BD,d_AD,True,False,False,Sure different,1,3.141592653589793,425.0,3647.0,8.20166019080868,2022-06-06 23:29:06
468,Main,5,0,9,Other designer,True,u_AD,u_AB,True,False,True,Sure same,1,3.141592653589793,350.0,7397.0,8.908829791587868,2022-06-06 23:29:06
469,Main,5,0,10,Other designer,True,d_AB,d_AD,True,False,True,Probably same,1,3.141592653589793,275.0,5738.0,8.65486599654131,2022-06-06 23:29:06
470,Main,5,0,11,Other designer,True,u_AD,u_BC,True,True,False,Probably different,1,3.141592653589793,200.0,6594.0,8.793915423631676,2022-06-06 23:29:06
471,Main,5,0,12,Other designer,True,u_AA,u_AA,False,True,True,Probably same,1,3.141592653589793,200.0,4011.0,8.296795865770052,2022-06-06 23:29:06
472,Main,5,0,13,Other designer,True,i_AD,i_BC,True,True,False,Sure different,1,3.141592653589793,275.0,3530.0,8.169053149927343,2022-06-06 23:29:06
473,Main,5,0,14,Other designer,True,i_AD,i_AB,True,False,True,Probably same,1,3.141592653589793,350.0,4249.0,8.354438940114811,2022-06-06 23:29:06
474,Main,5,0,15,Other designer,True,u_AD,u_AD,True,True,True,Probably same,1,3.141592653589793,425.0,5889.0,8.68084148294457,2022-06-06 23:29:06
475,Main,5,0,16,Other designer,True,u_DD,u_AA,False,True,False,Sure different,1,3.141592653589793,500.0,4075.0,8.312626025674962,2022-06-06 23:29:06
476,Main,5,0,17,Other designer,True,d_AD,d_AD,True,True,True,Probably same,1,3.141592653589793,575.0,5872.0,8.677950570294351,2022-06-06 23:29:06
477,Main,5,0,18,Other designer,True,i_AA,i_AA,False,True,True,Probably different,0,0.0,650.0,6082.0,8.71308886823731,2022-06-06 23:29:06
478,Main,5,1,1,Other designer,True,c_BC,c_AD,True,True,False,Sure different,1,3.141592653589793,227.8,8297.0,9.023649282664286,2022-06-06 23:29:06
479,Main,5,1,2,Other designer,True,c_DD,c_AA,False,True,False,Sure different,1,3.141592653589793,227.8,3321.0,8.108021221376747,2022-06-06 23:29:06
480,Main,5,1,3,Other designer,True,h_AD,h_AD,True,True,True,Probably same,1,3.141592653589793,227.8,4238.0,8.351846738828245,2022-06-06 23:29:06
481,Main,5,1,4,Other designer,True,t_AD,t_BC,True,True,False,Sure different,1,3.141592653589793,227.8,4190.0,8.340456012916183,2022-06-06 23:29:06
482,Main,5,1,5,Other designer,True,n_AA,n_AA,False,True,True,Sure same,1,3.141592653589793,227.8,4071.0,8.31164394850298,2022-06-06 23:29:06
483,Main,5,1,6,Other designer,True,a_DD,a_AA,False,True,False,Sure different,1,3.141592653589793,227.8,3647.0,8.20166019080868,2022-06-06 23:29:06
484,Main,5,1,7,Other designer,True,e_AD,e_AB,True,False,True,Probably different,0,0.0,227.8,3563.0,8.178358165605836,2022-06-06 23:29:06
485,Main,5,1,8,Other designer,True,z_AD,z_AD,True,True,True,Probably different,0,0.0,227.8,3805.0,8.244071270295786,2022-06-06 23:29:06
486,Main,5,1,9,Other designer,True,a_BC,a_AD,True,True,False,Probably different,1,3.141592653589793,227.8,3238.0,8.08271113423758,2022-06-06 23:29:06
487,Main,5,1,10,Other designer,True,e_DD,e_AA,False,True,False,Sure different,1,3.141592653589793,227.8,3062.0,8.026823576217629,2022-06-06 23:29:06
488,Main,5,1,11,Other designer,True,p_AA,p_AA,False,True,True,Sure same,1,3.141592653589793,227.8,3918.0,8.273336598504486,2022-06-06 23:29:06
489,Main,5,1,12,Other designer,True,b_AD,b_AD,True,True,True,Sure same,1,3.141592653589793,227.8,3625.0,8.195609567288775,2022-06-06 23:29:06
490,Main,5,1,13,Other designer,True,a_BD,a_AD,True,False,False,Sure different,1,3.141592653589793,227.8,3655.0,8.203851372183879,2022-06-06 23:29:06
491,Main,5,1,14,Other designer,True,r_AD,r_BC,True,True,False,Sure different,1,3.141592653589793,227.8,3078.0,8.032035314398824,2022-06-06 23:29:06
492,Main,5,1,15,Other designer,True,z_BD,z_AD,True,False,False,Sure different,1,3.141592653589793,227.8,3003.0,8.00736706798333,2022-06-06 23:29:06
493,Main,5,1,16,Other designer,True,p_DD,p_AA,False,True,False,Sure different,1,3.141592653589793,227.8,3012.0,8.010359588919783,2022-06-06 23:29:06
494,Main,5,1,17,Other designer,True,n_AD,n_AD,True,True,True,Probably different,0,0.0,227.8,3154.0,8.056426767522984,2022-06-06 23:29:06
495,Main,5,1,18,Other designer,True,j_BC,j_AD,True,True,False,Sure different,1,3.141592653589793,227.8,3179.0,8.064321960910803,2022-06-06 23:29:06
496,Main,5,1,19,Other designer,True,c_AD,c_AB,True,False,True,Sure different,0,0.0,227.8,3254.0,8.087640287778983,2022-06-06 23:29:06
497,Main,5,1,20,Other designer,True,t_AD,t_AB,True,False,True,Sure different,0,0.0,227.8,3112.0,8.043020885298283,2022-06-06 23:29:06
498,Main,5,1,21,Other designer,True,r_AB,r_AD,True,False,True,Sure different,0,0.0,227.8,3128.0,8.048149101665201,2022-06-06 23:29:06
499,Main,5,1,22,Other designer,True,q_AD,q_AD,True,True,True,Sure different,0,0.0,227.8,3614.0,8.192570471152173,2022-06-06 23:29:06
500,Main,5,1,23,Other designer,True,e_BC,e_AD,True,True,False,Sure different,1,3.141592653589793,227.8,3070.0,8.029432840581244,2022-06-06 23:29:06
501,Main,5,1,24,Other designer,True,q_DD,q_AA,False,True,False,Sure different,1,3.141592653589793,227.8,3021.0,8.013343181386672,2022-06-06 23:29:06
502,Main,5,1,25,Other designer,True,p_AB,p_AD,True,False,True,Sure different,0,0.0,227.8,3035.0,8.017966703493599,2022-06-06 23:29:06
503,Main,5,1,26,Other designer,True,n_AD,n_BC,True,True,False,Sure same,0,0.0,227.8,3498.0,8.159946655578548,2022-06-06 23:29:06
504,Main,5,1,27,Other designer,True,h_AD,h_AB,True,False,True,Probably same,1,3.141592653589793,227.8,3663.0,8.206037762778815,2022-06-06 23:29:06
505,Main,5,1,28,Other designer,True,j_AA,j_AA,False,True,True,Probably different,0,0.0,227.8,4096.0,8.317766166719343,2022-06-06 23:29:06
506,Main,5,1,29,Other designer,True,n_AA,n_DD,False,True,False,Sure different,1,3.141592653589793,227.8,3079.0,8.0323601479245,2022-06-06 23:29:06
507,Main,5,1,30,Other designer,True,r_AA,r_AA,False,True,True,Probably different,0,0.0,227.8,5112.0,8.53934599605737,2022-06-06 23:29:06
508,Main,5,1,31,Other designer,True,z_AA,z_AA,False,True,True,Probably different,0,0.0,227.8,3254.0,8.087640287778983,2022-06-06 23:29:06
509,Main,5,1,32,Other designer,True,b_BD,b_AD,True,False,False,Sure different,1,3.141592653589793,227.8,3298.0,8.101071503119543,2022-06-06 23:29:06
510,Main,5,1,33,Other designer,True,e_AD,e_AD,True,True,True,Probably different,0,0.0,227.8,3448.0,8.145549631783584,2022-06-06 23:29:06
511,Main,5,1,34,Other designer,True,p_AD,p_BC,True,True,False,Sure different,1,3.141592653589793,227.8,2970.0,7.996317231796746,2022-06-06 23:29:06
512,Main,5,1,35,Other designer,True,j_AD,j_AB,True,False,True,Sure different,0,0.0,227.8,3170.0,8.061486866871327,2022-06-06 23:29:06
513,Main,5,1,36,Other designer,True,r_AD,r_AD,True,True,True,Probably different,0,0.0,227.8,3287.0,8.097730573664219,2022-06-06 23:29:06
514,Main,5,1,37,Other designer,True,j_AD,j_AD,True,True,True,Probably same,1,3.141592653589793,227.8,4099.0,8.318498320504338,2022-06-06 23:29:06
515,Main,5,1,38,Other designer,True,b_BC,b_AD,True,True,False,Sure different,1,3.141592653589793,227.8,2927.0,7.9817332866918855,2022-06-06 23:29:06
516,Main,5,1,39,Other designer,True,p_AD,p_BD,True,False,False,Sure different,1,3.141592653589793,227.8,3354.0,8.117908942383155,2022-06-06 23:29:06
517,Main,5,1,40,Other designer,True,h_AA,h_AA,False,True,True,Probably different,0,0.0,227.8,4197.0,8.34212526333359,2022-06-06 23:29:06
518,Main,5,1,41,Other designer,True,a_AA,a_AA,False,True,True,Sure different,0,0.0,227.8,2956.0,7.991592282068092,2022-06-06 23:29:06
519,Main,5,1,42,Other designer,True,p_AD,p_AD,True,True,True,Probably same,1,3.141592653589793,227.8,4245.0,8.353497098745448,2022-06-06 23:29:06
520,Main,5,1,43,Other designer,True,n_AD,n_AB,True,False,True,Probably different,0,0.0,227.8,4598.0,8.433376705323127,2022-06-06 23:29:06
521,Main,5,1,44,Other designer,True,q_BD,q_AD,True,False,False,Probably same,0,0.0,227.8,4472.0,8.405591014834934,2022-06-06 23:29:06
522,Main,5,1,45,Other designer,True,t_AD,t_BD,True,False,False,Probably different,1,3.141592653589793,227.8,3355.0,8.118207049405783,2022-06-06 23:29:06
523,Main,5,1,46,Other designer,True,q_AB,q_AD,True,False,True,Probably same,1,3.141592653589793,227.8,3709.0,8.21851757748959,2022-06-06 23:29:06
524,Main,5,1,47,Other designer,True,c_AA,c_AA,False,True,True,Probably same,1,3.141592653589793,227.8,3734.0,8.225235324101668,2022-06-06 23:29:06
525,Main,5,1,48,Other designer,True,r_BD,r_AD,True,False,False,Sure different,1,3.141592653589793,227.8,3244.0,8.084562415235304,2022-06-06 23:29:06
526,Main,5,1,49,Other designer,True,c_AD,c_AD,True,True,True,Probably different,0,0.0,227.8,3990.0,8.29154650988391,2022-06-06 23:29:06
527,Main,5,1,50,Other designer,True,n_BD,n_AD,True,False,False,Sure different,1,3.141592653589793,227.8,3345.0,8.11522197256233,2022-06-06 23:29:06
528,Main,5,1,51,Other designer,True,j_DD,j_AA,False,True,False,Sure different,1,3.141592653589793,227.8,2850.0,7.955074273262696,2022-06-06 23:29:06
529,Main,5,1,52,Other designer,True,j_BD,j_AD,True,False,False,Sure different,1,3.141592653589793,227.8,2787.0,7.932721027481948,2022-06-06 23:29:06
530,Main,5,1,53,Other designer,True,e_BD,e_AD,True,False,False,Probably same,0,0.0,227.8,4097.0,8.318010277546872,2022-06-06 23:29:06
531,Main,5,1,54,Other designer,True,z_AD,z_BC,True,True,False,Sure different,1,3.141592653589793,227.8,3140.0,8.0519780789023,2022-06-06 23:29:06
532,Main,5,1,55,Other designer,True,r_AA,r_DD,False,True,False,Sure different,1,3.141592653589793,227.8,2953.0,7.990576881743923,2022-06-06 23:29:06
533,Main,5,1,56,Other designer,True,h_AA,h_DD,False,True,False,Sure different,1,3.141592653589793,227.8,2988.0,8.002359546252707,2022-06-06 23:29:06
534,Main,5,1,57,Other designer,True,t_AA,t_AA,False,True,True,Probably same,1,3.141592653589793,227.8,4388.0,8.38662882139512,2022-06-06 23:29:06
535,Main,5,1,58,Other designer,True,b_DD,b_AA,False,True,False,Sure different,1,3.141592653589793,227.8,2821.0,7.944846711001996,2022-06-06 23:29:06
536,Main,5,1,59,Other designer,True,z_AD,z_AB,True,False,True,Probably same,1,3.141592653589793,227.8,4315.0,8.36985260351753,2022-06-06 23:29:06
537,Main,5,1,60,Other designer,True,h_AD,h_BD,True,False,False,Sure different,1,3.141592653589793,227.8,2962.0,7.993619994827744,2022-06-06 23:29:06
538,Main,5,1,61,Other designer,True,q_AA,q_AA,False,True,True,Probably same,1,3.141592653589793,227.8,3724.0,8.222553638396958,2022-06-06 23:29:06
539,Main,5,1,62,Other designer,True,a_AD,a_AD,True,True,True,Probably same,1,3.141592653589793,227.8,3819.0,8.247743887225516,2022-06-06 23:29:06
540,Main,5,1,63,Other designer,True,e_AA,e_AA,False,True,True,Probably same,1,3.141592653589793,227.8,3003.0,8.00736706798333,2022-06-06 23:29:06
541,Main,5,1,64,Other designer,True,h_AD,h_BC,True,True,False,Sure different,1,3.141592653589793,227.8,2903.0,7.97349996402463,2022-06-06 23:29:06
542,Main,5,1,65,Other designer,True,q_BC,q_AD,True,True,False,Probably different,1,3.141592653589793,227.8,3262.0,8.09009578318096,2022-06-06 23:29:06
543,Main,5,1,66,Other designer,True,t_DD,t_AA,False,True,False,Sure different,1,3.141592653589793,227.8,2812.0,7.941651252930556,2022-06-06 23:29:06
544,Main,5,1,67,Other designer,True,b_AA,b_AA,False,True,True,Probably same,1,3.141592653589793,227.8,4121.0,8.323851131338817,2022-06-06 23:29:06
545,Main,5,1,68,Other designer,True,a_AD,a_AB,True,False,True,Sure different,0,0.0,227.8,3179.0,8.064321960910803,2022-06-06 23:29:06
546,Main,5,1,69,Other designer,True,b_AB,b_AD,True,False,True,Probably different,0,0.0,227.8,4047.0,8.305731144875866,2022-06-06 23:29:06
547,Main,5,1,70,Other designer,True,z_DD,z_AA,False,True,False,Sure different,1,3.141592653589793,227.8,2794.0,7.935229539816907,2022-06-06 23:29:06
548,Main,5,1,71,Other designer,True,c_BD,c_AD,True,False,False,Sure different,1,3.141592653589793,227.8,3409.0,8.134174272137903,2022-06-06 23:29:06
549,Main,5,1,72,Other designer,True,t_AD,t_AD,True,True,True,Probably different,0,0.0,227.8,3327.0,8.109826276018477,2022-06-06 23:29:06
550,Main,5,0,19,Other designer,True,u_AD,u_BD,True,False,False,Sure different,1,3.141592653589793,725.0,5209.0,8.558143177745192,2022-06-06 23:29:06
551,Main,5,0,20,Other designer,True,i_AD,i_AD,True,True,True,Sure same,1,3.141592653589793,800.0,4596.0,8.432941638968646,2022-06-06 23:29:06
552,Main,6,0,1,Non-designer,False,d_AD,d_BC,True,True,False,Sure different,1,3.141592653589793,800.0,6153.0,8.724695046740491,2022-06-06 18:39:58
553,Main,6,0,2,Non-designer,False,u_AA,u_DD,False,True,False,Sure different,1,3.141592653589793,800.0,4028.0,8.301025253838453,2022-06-06 18:39:58
554,Main,6,0,3,Non-designer,False,d_AA,d_DD,False,True,False,Sure different,1,3.141592653589793,800.0,3858.0,8.257904193465674,2022-06-06 18:39:58
555,Main,6,0,4,Non-designer,False,d_AA,d_AA,False,True,True,Sure same,1,3.141592653589793,725.0,4000.0,8.294049640102028,2022-06-06 18:39:58
556,Main,6,0,5,Non-designer,False,i_AA,i_DD,False,True,False,Sure different,1,3.141592653589793,650.0,3803.0,8.24354550792826,2022-06-06 18:39:58
557,Main,6,0,6,Non-designer,False,d_AD,d_BC,True,True,False,Sure different,1,3.141592653589793,575.0,3389.0,8.128290171607052,2022-06-06 18:39:58
558,Main,6,0,7,Non-designer,False,i_AD,i_BD,True,False,False,Sure different,1,3.141592653589793,500.0,3844.0,8.254268770090183,2022-06-06 18:39:58
559,Main,6,0,8,Non-designer,False,d_AD,d_BD,True,False,False,Sure different,1,3.141592653589793,425.0,3120.0,8.045588280803528,2022-06-06 18:39:58
560,Main,6,0,9,Non-designer,False,u_AD,u_AB,True,False,True,Probably same,1,3.141592653589793,350.0,5605.0,8.63141433550626,2022-06-06 18:39:58
561,Main,6,0,10,Non-designer,False,d_AD,d_AB,True,False,True,Probably same,1,3.141592653589793,275.0,3743.0,8.22764270790443,2022-06-06 18:39:58
562,Main,6,0,11,Non-designer,False,u_AD,u_BC,True,True,False,Sure different,1,3.141592653589793,200.0,3470.0,8.151909872940905,2022-06-06 18:39:58
563,Main,6,0,12,Non-designer,False,u_AA,u_AA,False,True,True,Sure same,1,3.141592653589793,200.0,4836.0,8.483843211734683,2022-06-06 18:39:58
564,Main,6,0,13,Non-designer,False,i_BC,i_AD,True,True,False,Sure different,1,3.141592653589793,275.0,4515.0,8.415160465851086,2022-06-06 18:39:58
565,Main,6,0,14,Non-designer,False,i_AB,i_AD,True,False,True,Sure same,1,3.141592653589793,350.0,3796.0,8.241703159729818,2022-06-06 18:39:58
566,Main,6,0,15,Non-designer,False,u_AD,u_AD,True,True,True,Sure same,1,3.141592653589793,425.0,3487.0,8.156797046675651,2022-06-06 18:39:58
567,Main,6,0,16,Non-designer,False,u_DD,u_AA,False,True,False,Sure different,1,3.141592653589793,500.0,3318.0,8.10711747075039,2022-06-06 18:39:58
568,Main,6,0,17,Non-designer,False,d_AD,d_AD,True,True,True,Sure same,1,3.141592653589793,575.0,4286.0,8.363109176033522,2022-06-06 18:39:58
569,Main,6,0,18,Non-designer,False,i_AA,i_AA,False,True,True,Sure same,1,3.141592653589793,650.0,4025.0,8.300280189852664,2022-06-06 18:39:58
570,Main,6,1,1,Non-designer,False,z_AA,z_DD,False,True,False,Sure different,1,3.141592653589793,150.0,5492.0,8.61104776688786,2022-06-06 18:39:58
571,Main,6,1,2,Non-designer,False,a_AD,a_BD,True,False,False,Sure same,0,0.0,150.0,3413.0,8.135346948906706,2022-06-06 18:39:58
572,Main,6,1,3,Non-designer,False,r_AD,r_AD,True,True,True,Probably same,1,3.141592653589793,150.0,4530.0,8.41847721847708,2022-06-06 18:39:58
573,Main,6,1,4,Non-designer,False,e_AA,e_DD,False,True,False,Sure different,1,3.141592653589793,150.0,6512.0,8.781401907682376,2022-06-06 18:39:58
574,Main,6,1,5,Non-designer,False,b_AB,b_AD,True,False,True,Sure same,1,3.141592653589793,150.0,5290.0,8.573573524852344,2022-06-06 18:39:58
575,Main,6,1,6,Non-designer,False,b_BC,b_AD,True,True,False,Sure different,1,3.141592653589793,150.0,2877.0,7.964503363551548,2022-06-06 18:39:58
576,Main,6,1,7,Non-designer,False,a_AD,a_AB,True,False,True,Sure different,0,0.0,150.0,3619.0,8.193953023563742,2022-06-06 18:39:58
577,Main,6,1,8,Non-designer,False,n_AD,n_BC,True,True,False,Sure different,1,3.141592653589793,150.0,7078.0,8.864746660905409,2022-06-06 18:39:58
578,Main,6,1,9,Non-designer,False,p_AD,p_AD,True,True,True,Probably same,1,3.141592653589793,150.0,4871.0,8.491054533806542,2022-06-06 18:39:58
579,Main,6,1,10,Non-designer,False,b_AD,b_BD,True,False,False,Sure different,1,3.141592653589793,150.0,3079.0,8.0323601479245,2022-06-06 18:39:58
580,Main,6,1,11,Non-designer,False,n_AD,n_AD,True,True,True,Sure same,1,3.141592653589793,150.0,3628.0,8.196436811235028,2022-06-06 18:39:58
581,Main,6,1,12,Non-designer,False,n_AD,n_AB,True,False,True,Sure same,1,3.141592653589793,150.0,3496.0,8.159374736775426,2022-06-06 18:39:58
582,Main,6,1,13,Non-designer,False,c_AD,c_BD,True,False,False,Sure different,1,3.141592653589793,150.0,2885.0,7.9672801789422,2022-06-06 18:39:58
583,Main,6,1,14,Non-designer,False,t_BD,t_AD,True,False,False,Sure different,1,3.141592653589793,150.0,3044.0,8.020927718981577,2022-06-06 18:39:58
584,Main,6,1,15,Non-designer,False,p_BD,p_AD,True,False,False,Sure different,1,3.141592653589793,150.0,3381.0,8.125926802707886,2022-06-06 18:39:58
585,Main,6,1,16,Non-designer,False,h_AD,h_AB,True,False,True,Probably same,1,3.141592653589793,150.0,5113.0,8.53954159508,2022-06-06 18:39:58
586,Main,6,1,17,Non-designer,False,r_BC,r_AD,True,True,False,Sure different,1,3.141592653589793,150.0,4382.0,8.385260520155413,2022-06-06 18:39:58
587,Main,6,1,18,Non-designer,False,r_AA,r_AA,False,True,True,Sure different,0,0.0,150.0,4873.0,8.491465042843506,2022-06-06 18:39:58
588,Main,6,1,19,Non-designer,False,t_DD,t_AA,False,True,False,Sure different,1,3.141592653589793,150.0,3301.0,8.101980731853192,2022-06-06 18:39:58
589,Main,6,1,20,Non-designer,False,b_AD,b_AD,True,True,True,Probably same,1,3.141592653589793,150.0,4746.0,8.465057436995709,2022-06-06 18:39:58
590,Main,6,1,21,Non-designer,False,h_BD,h_AD,True,False,False,Sure different,1,3.141592653589793,150.0,2759.0,7.922623574217286,2022-06-06 18:39:58
591,Main,6,1,22,Non-designer,False,j_BC,j_AD,True,True,False,Sure different,1,3.141592653589793,150.0,2958.0,7.992268643270745,2022-06-06 18:39:58
592,Main,6,1,23,Non-designer,False,z_AD,z_AD,True,True,True,Sure same,1,3.141592653589793,150.0,3543.0,8.172729104865471,2022-06-06 18:39:58
593,Main,6,1,24,Non-designer,False,j_AA,j_AA,False,True,True,Sure same,1,3.141592653589793,150.0,3655.0,8.203851372183879,2022-06-06 18:39:58
594,Main,6,1,25,Non-designer,False,r_AD,r_AB,True,False,True,Sure different,0,0.0,150.0,3045.0,8.021256180143997,2022-06-06 18:39:58
595,Main,6,1,26,Non-designer,False,e_AD,e_AB,True,False,True,Sure different,0,0.0,150.0,3578.0,8.182559264068665,2022-06-06 18:39:58
596,Main,6,1,27,Non-designer,False,r_AA,r_DD,False,True,False,Sure different,1,3.141592653589793,150.0,2957.0,7.9919305198524775,2022-06-06 18:39:58
597,Main,6,1,28,Non-designer,False,z_AB,z_AD,True,False,True,Sure different,0,0.0,150.0,3707.0,8.217978203150732,2022-06-06 18:39:58
598,Main,6,1,29,Non-designer,False,r_AD,r_BD,True,False,False,Sure different,1,3.141592653589793,150.0,2758.0,7.922261058353247,2022-06-06 18:39:58
599,Main,6,1,30,Non-designer,False,p_AA,p_AA,False,True,True,Sure same,1,3.141592653589793,150.0,3529.0,8.16876982367527,2022-06-06 18:39:58
600,Main,6,1,31,Non-designer,False,t_AD,t_BC,True,True,False,Sure same,0,0.0,150.0,3605.0,8.190077049719049,2022-06-06 18:39:58
601,Main,6,1,32,Non-designer,False,j_DD,j_AA,False,True,False,Sure different,1,3.141592653589793,150.0,3720.0,8.221478947267192,2022-06-06 18:39:58
602,Main,6,1,33,Non-designer,False,a_AA,a_AA,False,True,True,Sure same,1,3.141592653589793,150.0,3512.0,8.163940954755008,2022-06-06 18:39:58
603,Main,6,1,34,Non-designer,False,b_DD,b_AA,False,True,False,Sure different,1,3.141592653589793,150.0,2775.0,7.928406026180535,2022-06-06 18:39:58
604,Main,6,1,35,Non-designer,False,b_AA,b_AA,False,True,True,Probably same,1,3.141592653589793,150.0,4108.0,8.32069157104845,2022-06-06 18:39:58
605,Main,6,1,36,Non-designer,False,p_AD,p_BC,True,True,False,Sure different,1,3.141592653589793,150.0,3189.0,8.067462667010057,2022-06-06 18:39:58
606,Main,6,1,37,Non-designer,False,j_BD,j_AD,True,False,False,Sure different,1,3.141592653589793,150.0,2786.0,7.932362154339751,2022-06-06 18:39:58
607,Main,6,1,38,Non-designer,False,a_AD,a_AD,True,True,True,Sure different,0,0.0,150.0,3559.0,8.177234885510194,2022-06-06 18:39:58
608,Main,6,1,39,Non-designer,False,p_AB,p_AD,True,False,True,Sure different,0,0.0,150.0,2913.0,7.976938756959434,2022-06-06 18:39:58
609,Main,6,1,40,Non-designer,False,q_AD,q_AD,True,True,True,Probably same,1,3.141592653589793,150.0,4457.0,8.402231172946555,2022-06-06 18:39:58
610,Main,6,1,41,Non-designer,False,j_AD,j_AB,True,False,True,Sure different,0,0.0,150.0,3379.0,8.12533508671429,2022-06-06 18:39:58
611,Main,6,1,42,Non-designer,False,e_AD,e_BD,True,False,False,Sure same,0,0.0,150.0,3680.0,8.210668031162976,2022-06-06 18:39:58
612,Main,6,1,43,Non-designer,False,p_AA,p_DD,False,True,False,Sure different,1,3.141592653589793,150.0,2783.0,7.931284761525891,2022-06-06 18:39:58
613,Main,6,1,44,Non-designer,False,h_AA,h_DD,False,True,False,Sure different,1,3.141592653589793,150.0,2727.0,7.910957382845589,2022-06-06 18:39:58
614,Main,6,1,45,Non-designer,False,q_BC,q_AD,True,True,False,Probably same,0,0.0,150.0,4352.0,8.378390788535778,2022-06-06 18:39:58
615,Main,6,1,46,Non-designer,False,q_AD,q_BD,True,False,False,Sure different,1,3.141592653589793,150.0,2967.0,7.995306620290822,2022-06-06 18:39:58
616,Main,6,1,47,Non-designer,False,h_AA,h_AA,False,True,True,Probably same,1,3.141592653589793,150.0,6224.0,8.736168065858228,2022-06-06 18:39:58
617,Main,6,1,48,Non-designer,False,e_BC,e_AD,True,True,False,Probably same,0,0.0,150.0,3393.0,8.129469764784231,2022-06-06 18:39:58
618,Main,6,1,49,Non-designer,False,c_AD,c_AD,True,True,True,Probably same,1,3.141592653589793,150.0,3317.0,8.106816038947052,2022-06-06 18:39:58
619,Main,6,1,50,Non-designer,False,q_AA,q_AA,False,True,True,Probably same,1,3.141592653589793,150.0,3343.0,8.114623886420098,2022-06-06 18:39:58
620,Main,6,1,51,Non-designer,False,t_AB,t_AD,True,False,True,Probably same,1,3.141592653589793,150.0,3183.0,8.065579427282092,2022-06-06 18:39:58
621,Main,6,1,52,Non-designer,False,c_DD,c_AA,False,True,False,Sure different,1,3.141592653589793,150.0,2952.0,7.990238185720363,2022-06-06 18:39:58
622,Main,6,1,53,Non-designer,False,q_AA,q_DD,False,True,False,Sure different,1,3.141592653589793,150.0,2724.0,7.909856667269403,2022-06-06 18:39:58
623,Main,6,1,54,Non-designer,False,n_BD,n_AD,True,False,False,Sure different,1,3.141592653589793,150.0,2652.0,7.883069351305753,2022-06-06 18:39:58
624,Main,6,1,55,Non-designer,False,z_AD,z_BC,True,True,False,Sure different,1,3.141592653589793,150.0,3063.0,8.027150106832774,2022-06-06 18:39:58
625,Main,6,1,56,Non-designer,False,n_AA,n_AA,False,True,True,Probably same,1,3.141592653589793,150.0,3706.0,8.217708406845306,2022-06-06 18:39:58
626,Main,6,1,57,Non-designer,False,z_BD,z_AD,True,False,False,Sure different,1,3.141592653589793,150.0,2801.0,7.937731775260109,2022-06-06 18:39:58
627,Main,6,1,58,Non-designer,False,n_DD,n_AA,False,True,False,Sure different,1,3.141592653589793,150.0,2732.0,7.912789220690681,2022-06-06 18:39:58
628,Main,6,1,59,Non-designer,False,t_AD,t_AD,True,True,True,Probably same,1,3.141592653589793,150.0,3708.0,8.218247926685745,2022-06-06 18:39:58
629,Main,6,1,60,Non-designer,False,h_BC,h_AD,True,True,False,Sure different,1,3.141592653589793,150.0,2683.0,7.894690850425624,2022-06-06 18:39:58
630,Main,6,1,61,Non-designer,False,a_DD,a_AA,False,True,False,Sure different,1,3.141592653589793,150.0,2819.0,7.9441374911141125,2022-06-06 18:39:58
631,Main,6,1,62,Non-designer,False,q_AD,q_AB,True,False,True,Sure different,0,0.0,150.0,3129.0,8.048468743668883,2022-06-06 18:39:58
632,Main,6,1,63,Non-designer,False,z_AA,z_AA,False,True,True,Sure different,0,0.0,150.0,2894.0,7.970394907191429,2022-06-06 18:39:58
633,Main,6,1,64,Non-designer,False,h_AD,h_AD,True,True,True,Sure different,0,0.0,150.0,2649.0,7.88193748927207,2022-06-06 18:39:58
634,Main,6,1,65,Non-designer,False,c_BC,c_AD,True,True,False,Sure different,1,3.141592653589793,150.0,2783.0,7.931284761525891,2022-06-06 18:39:58
635,Main,6,1,66,Non-designer,False,t_AA,t_AA,False,True,True,Probably same,1,3.141592653589793,150.0,3374.0,8.123854263105914,2022-06-06 18:39:58
636,Main,6,1,67,Non-designer,False,c_AA,c_AA,False,True,True,Sure different,0,0.0,150.0,8248.0,9.017726025696795,2022-06-06 18:39:58
637,Main,6,1,68,Non-designer,False,c_AD,c_AB,True,False,True,Sure different,0,0.0,150.0,2837.0,7.950502434808851,2022-06-06 18:39:58
638,Main,6,1,69,Non-designer,False,a_BC,a_AD,True,True,False,Sure different,1,3.141592653589793,150.0,4208.0,8.344742754417545,2022-06-06 18:39:58
639,Main,6,1,70,Non-designer,False,j_AD,j_AD,True,True,True,Sure different,0,0.0,150.0,5809.0,8.667163717992533,2022-06-06 18:39:58
640,Main,6,1,71,Non-designer,False,e_AA,e_AA,False,True,True,Sure different,0,0.0,150.0,3777.0,8.236685322712457,2022-06-06 18:39:58
641,Main,6,1,72,Non-designer,False,e_AD,e_AD,True,True,True,Probably same,1,3.141592653589793,150.0,3426.0,8.139148678884066,2022-06-06 18:39:58
642,Main,6,0,19,Non-designer,False,u_AD,u_BD,True,False,False,Sure different,1,3.141592653589793,725.0,3652.0,8.20303024171486,2022-06-06 18:39:58
643,Main,6,0,20,Non-designer,False,i_AD,i_AD,True,True,True,Sure same,1,3.141592653589793,800.0,3893.0,8.266935347610456,2022-06-06 18:39:58
644,Main,7,0,1,Graphic designer,True,d_BC,d_AD,True,True,False,Probably same,0,0.0,800.0,7259.0,8.889997357284841,2022-06-06 18:31:25
645,Main,7,0,2,Graphic designer,True,u_AA,u_DD,False,True,False,Sure different,1,3.141592653589793,800.0,4269.0,8.359134886757962,2022-06-06 18:31:25
646,Main,7,0,3,Graphic designer,True,d_AA,d_DD,False,True,False,Sure different,1,3.141592653589793,800.0,3272.0,8.093156697722637,2022-06-06 18:31:25
647,Main,7,0,4,Graphic designer,True,d_AA,d_AA,False,True,True,Sure same,1,3.141592653589793,725.0,4252.0,8.355144739461839,2022-06-06 18:31:25
648,Main,7,0,5,Graphic designer,True,i_AA,i_DD,False,True,False,Sure different,1,3.141592653589793,650.0,3338.0,8.11312710422178,2022-06-06 18:31:25
649,Main,7,0,6,Graphic designer,True,d_AD,d_BC,True,True,False,Sure different,1,3.141592653589793,575.0,4227.0,8.34924780056679,2022-06-06 18:31:25
650,Main,7,0,7,Graphic designer,True,i_AD,i_BD,True,False,False,Probably different,1,3.141592653589793,500.0,3816.0,8.246958032568177,2022-06-06 18:31:25
651,Main,7,0,8,Graphic designer,True,d_AD,d_BD,True,False,False,Sure different,1,3.141592653589793,425.0,2952.0,7.990238185720363,2022-06-06 18:31:25
652,Main,7,0,9,Graphic designer,True,u_AD,u_AB,True,False,True,Sure same,1,3.141592653589793,350.0,4470.0,8.405143687607614,2022-06-06 18:31:25
653,Main,7,0,10,Graphic designer,True,d_AB,d_AD,True,False,True,Sure same,1,3.141592653589793,275.0,3250.0,8.086410275323782,2022-06-06 18:31:25
654,Main,7,0,11,Graphic designer,True,u_BC,u_AD,True,True,False,Sure different,1,3.141592653589793,200.0,3306.0,8.10349427838097,2022-06-06 18:31:25
655,Main,7,0,12,Graphic designer,True,u_AA,u_AA,False,True,True,Probably same,1,3.141592653589793,200.0,3153.0,8.056109659545061,2022-06-06 18:31:25
656,Main,7,0,13,Graphic designer,True,i_BC,i_AD,True,True,False,Sure different,1,3.141592653589793,275.0,3474.0,8.153061946801051,2022-06-06 18:31:25
657,Main,7,0,14,Graphic designer,True,i_AB,i_AD,True,False,True,Probably same,1,3.141592653589793,350.0,3134.0,8.050065422915965,2022-06-06 18:31:25
658,Main,7,0,15,Graphic designer,True,u_AD,u_AD,True,True,True,Sure same,1,3.141592653589793,425.0,3200.0,8.070906088787819,2022-06-06 18:31:25
659,Main,7,0,16,Graphic designer,True,u_DD,u_AA,False,True,False,Sure different,1,3.141592653589793,500.0,3401.0,8.131824785007195,2022-06-06 18:31:25
660,Main,7,0,17,Graphic designer,True,d_AD,d_AD,True,True,True,Sure same,1,3.141592653589793,575.0,4385.0,8.385944904806284,2022-06-06 18:31:25
661,Main,7,0,18,Graphic designer,True,i_AA,i_AA,False,True,True,Sure same,1,3.141592653589793,650.0,3223.0,8.078067881815437,2022-06-06 18:31:25
662,Main,7,1,1,Graphic designer,True,j_BD,j_AD,True,False,False,Probably different,1,3.141592653589793,150.0,6042.0,8.706490361946617,2022-06-06 18:31:25
663,Main,7,1,2,Graphic designer,True,p_AD,p_BD,True,False,False,Sure different,1,3.141592653589793,150.0,3234.0,8.081475040137052,2022-06-06 18:31:25
664,Main,7,1,3,Graphic designer,True,z_AD,z_AB,True,False,True,Probably same,1,3.141592653589793,150.0,2953.0,7.990576881743923,2022-06-06 18:31:25
665,Main,7,1,4,Graphic designer,True,c_AD,c_BD,True,False,False,Probably same,0,0.0,150.0,2483.0,7.817222785508166,2022-06-06 18:31:25
666,Main,7,1,5,Graphic designer,True,z_AA,z_AA,False,True,True,Probably different,0,0.0,150.0,3871.0,8.261268150577648,2022-06-06 18:31:25
667,Main,7,1,6,Graphic designer,True,e_BD,e_AD,True,False,False,Probably same,0,0.0,150.0,2681.0,7.893945138235959,2022-06-06 18:31:25
668,Main,7,1,7,Graphic designer,True,e_AA,e_AA,False,True,True,Sure same,1,3.141592653589793,150.0,3439.0,8.142936010432265,2022-06-06 18:31:25
669,Main,7,1,8,Graphic designer,True,n_AA,n_AA,False,True,True,Sure different,0,0.0,150.0,3394.0,8.129764445794171,2022-06-06 18:31:25
670,Main,7,1,9,Graphic designer,True,z_BD,z_AD,True,False,False,Sure different,1,3.141592653589793,150.0,2540.0,7.8399193600125825,2022-06-06 18:31:25
671,Main,7,1,10,Graphic designer,True,z_AD,z_AD,True,True,True,Sure same,1,3.141592653589793,150.0,3218.0,8.076515327552329,2022-06-06 18:31:25
672,Main,7,1,11,Graphic designer,True,b_AD,b_AB,True,False,True,Probably different,0,0.0,150.0,4148.0,8.330381569349418,2022-06-06 18:31:25
673,Main,7,1,12,Graphic designer,True,r_AD,r_BD,True,False,False,Sure different,1,3.141592653589793,150.0,3004.0,8.007700012884026,2022-06-06 18:31:25
674,Main,7,1,13,Graphic designer,True,r_BC,r_AD,True,True,False,Probably same,0,0.0,150.0,2978.0,7.999007213243955,2022-06-06 18:31:25
675,Main,7,1,14,Graphic designer,True,h_AD,h_AD,True,True,True,Sure same,1,3.141592653589793,150.0,3144.0,8.053251153549096,2022-06-06 18:31:25
676,Main,7,1,15,Graphic designer,True,n_AB,n_AD,True,False,True,Sure same,1,3.141592653589793,150.0,2992.0,8.003697339094368,2022-06-06 18:31:25
677,Main,7,1,16,Graphic designer,True,t_BD,t_AD,True,False,False,Sure different,1,3.141592653589793,150.0,2950.0,7.989560449333865,2022-06-06 18:31:25
678,Main,7,1,17,Graphic designer,True,h_AD,h_BC,True,True,False,Sure different,1,3.141592653589793,150.0,2701.0,7.901377353792616,2022-06-06 18:31:25
679,Main,7,1,18,Graphic designer,True,h_DD,h_AA,False,True,False,Sure different,1,3.141592653589793,150.0,2242.0,7.715123603632105,2022-06-06 18:31:25
680,Main,7,1,19,Graphic designer,True,t_AD,t_BC,True,True,False,Sure different,1,3.141592653589793,150.0,2465.0,7.80994708647679,2022-06-06 18:31:25
681,Main,7,1,20,Graphic designer,True,q_AA,q_AA,False,True,True,Probably same,1,3.141592653589793,150.0,3530.0,8.169053149927343,2022-06-06 18:31:25
682,Main,7,1,21,Graphic designer,True,h_AD,h_BD,True,False,False,Probably different,1,3.141592653589793,150.0,3325.0,8.109224953089955,2022-06-06 18:31:25
683,Main,7,1,22,Graphic designer,True,p_AA,p_AA,False,True,True,Probably same,1,3.141592653589793,150.0,2891.0,7.969357742016346,2022-06-06 18:31:25
684,Main,7,1,23,Graphic designer,True,e_AD,e_AD,True,True,True,Probably same,1,3.141592653589793,150.0,2770.0,7.926602599181384,2022-06-06 18:31:25
685,Main,7,1,24,Graphic designer,True,e_DD,e_AA,False,True,False,Sure different,1,3.141592653589793,150.0,3128.0,8.048149101665201,2022-06-06 18:31:25
686,Main,7,1,25,Graphic designer,True,p_AD,p_BC,True,True,False,Sure different,1,3.141592653589793,150.0,2357.0,7.7651449029361315,2022-06-06 18:31:25
687,Main,7,1,26,Graphic designer,True,n_AA,n_DD,False,True,False,Sure different,1,3.141592653589793,150.0,2195.0,7.693937325509272,2022-06-06 18:31:25
688,Main,7,1,27,Graphic designer,True,t_DD,t_AA,False,True,False,Sure different,1,3.141592653589793,150.0,2481.0,7.816416983691801,2022-06-06 18:31:25
