,StudyID,ParticipantID,TestID,TrialID,Training,isDesigner,GreekLatin,First,Second,Composite pair,Congruent pair,Same,Response,Correct,Correct (normalized),ET,RT,RT (normalized),Date
0,Main,0,0,1,Letter designer,True,,d_BC,d_AD,True,True,False,Sure different,1,3.141592653589793,800.0,7397.0,8.908829791587868,2022-06-28 12:51:46
1,Main,0,0,2,Letter designer,True,,u_AA,u_DD,False,True,False,Sure different,1,3.141592653589793,800.0,3650.0,8.202482446576537,2022-06-28 12:51:46
2,Main,0,0,3,Letter designer,True,,d_AA,d_DD,False,True,False,Sure different,1,3.141592653589793,800.0,3404.0,8.132706489693264,2022-06-28 12:51:46
3,Main,0,0,4,Letter designer,True,,d_AA,d_AA,False,True,True,Probably same,1,3.141592653589793,725.0,5921.0,8.686260632531775,2022-06-28 12:51:46
4,Main,0,0,5,Letter designer,True,,i_AA,i_DD,False,True,False,Sure different,1,3.141592653589793,650.0,3438.0,8.142645185942795,2022-06-28 12:51:46
5,Main,0,0,6,Letter designer,True,,d_AD,d_BC,True,True,False,Sure different,1,3.141592653589793,575.0,3137.0,8.051022208190679,2022-06-28 12:51:46
6,Main,0,0,7,Letter designer,True,,i_AD,i_BD,True,False,False,Probably same,0,0.0,500.0,4291.0,8.364275084991524,2022-06-28 12:51:46
7,Main,0,0,8,Letter designer,True,,d_AD,d_BD,True,False,False,Sure different,1,3.141592653589793,425.0,2896.0,7.971085753505607,2022-06-28 12:51:46
8,Main,0,0,9,Letter designer,True,,u_AB,u_AD,True,False,True,Sure same,1,3.141592653589793,350.0,4333.0,8.374015421739909,2022-06-28 12:51:46
9,Main,0,0,10,Letter designer,True,,d_AB,d_AD,True,False,True,Probably same,1,3.141592653589793,275.0,4479.0,8.4071550862073,2022-06-28 12:51:46
10,Main,0,0,11,Letter designer,True,,u_BC,u_AD,True,True,False,Sure different,1,3.141592653589793,200.0,2855.0,7.956827122090111,2022-06-28 12:51:46
11,Main,0,0,12,Letter designer,True,,u_AA,u_AA,False,True,True,Probably same,1,3.141592653589793,200.0,3928.0,8.275885669474356,2022-06-28 12:51:46
12,Main,0,0,13,Letter designer,True,,i_AD,i_BC,True,True,False,Probably different,1,3.141592653589793,275.0,7629.0,8.93971205409023,2022-06-28 12:51:46
13,Main,0,0,14,Letter designer,True,,i_AB,i_AD,True,False,True,Probably same,1,3.141592653589793,350.0,4692.0,8.453614209773367,2022-06-28 12:51:46
14,Main,0,0,15,Letter designer,True,,u_AD,u_AD,True,True,True,Sure different,0,0.0,425.0,3120.0,8.045588280803528,2022-06-28 12:51:46
15,Main,0,0,16,Letter designer,True,,u_DD,u_AA,False,True,False,Sure same,0,0.0,500.0,10450.0,9.254357257392957,2022-06-28 12:51:46
16,Main,0,0,17,Letter designer,True,,d_AD,d_AD,True,True,True,Probably same,1,3.141592653589793,575.0,4449.0,8.400434630806041,2022-06-28 12:51:46
17,Main,0,0,18,Letter designer,True,,i_AA,i_AA,False,True,True,Probably same,1,3.141592653589793,650.0,3782.0,8.238008249218403,2022-06-28 12:51:46
18,Main,0,1,1,Letter designer,True,,n_DD,n_AA,False,True,False,Sure different,1,3.141592653589793,266.7,5497.0,8.61195776786066,2022-06-28 12:51:46
19,Main,0,1,2,Letter designer,True,,a_AD,a_AB,True,False,True,Sure same,1,3.141592653589793,266.7,3611.0,8.191740021277457,2022-06-28 12:51:46
20,Main,0,1,3,Letter designer,True,,c_AD,c_AD,True,True,True,Probably same,1,3.141592653589793,266.7,2960.0,7.992944547318106,2022-06-28 12:51:46
21,Main,0,1,4,Letter designer,True,,r_AD,r_BD,True,False,False,Sure different,1,3.141592653589793,266.7,3224.0,8.07837810362652,2022-06-28 12:51:46
22,Main,0,1,5,Letter designer,True,,e_AD,e_AD,True,True,True,Probably same,1,3.141592653589793,266.7,3705.0,8.217438537730187,2022-06-28 12:51:46
23,Main,0,1,6,Letter designer,True,,j_AB,j_AD,True,False,True,Probably same,1,3.141592653589793,266.7,6587.0,8.792853288640693,2022-06-28 12:51:46
24,Main,0,1,7,Letter designer,True,,r_AD,r_AD,True,True,True,Probably same,1,3.141592653589793,266.7,2952.0,7.990238185720363,2022-06-28 12:51:46
25,Main,0,1,8,Letter designer,True,,j_AD,j_AD,True,True,True,Probably same,1,3.141592653589793,266.7,2893.0,7.970049304976135,2022-06-28 12:51:46
26,Main,0,1,9,Letter designer,True,,q_AA,q_DD,False,True,False,Sure different,1,3.141592653589793,266.7,3108.0,8.041734711487537,2022-06-28 12:51:46
27,Main,0,1,10,Letter designer,True,,b_BC,b_AD,True,True,False,Sure different,1,3.141592653589793,266.7,2614.0,7.868636894184167,2022-06-28 12:51:46
28,Main,0,1,11,Letter designer,True,,n_AD,n_BD,True,False,False,Sure different,1,3.141592653589793,266.7,2544.0,7.841492924460013,2022-06-28 12:51:46
29,Main,0,1,12,Letter designer,True,,c_AA,c_AA,False,True,True,Probably same,1,3.141592653589793,266.7,3121.0,8.045908742270779,2022-06-28 12:51:46
30,Main,0,1,13,Letter designer,True,,q_AB,q_AD,True,False,True,Probably same,1,3.141592653589793,266.7,3076.0,8.031385330625534,2022-06-28 12:51:46
31,Main,0,1,14,Letter designer,True,,e_BD,e_AD,True,False,False,Probably same,0,0.0,266.7,3573.0,8.181160858023409,2022-06-28 12:51:46
32,Main,0,1,15,Letter designer,True,,c_AD,c_BC,True,True,False,Sure different,1,3.141592653589793,266.7,3464.0,8.150179269682326,2022-06-28 12:51:46
33,Main,0,1,16,Letter designer,True,,e_AB,e_AD,True,False,True,Probably same,1,3.141592653589793,266.7,13894.0,9.539212371252827,2022-06-28 12:51:46
34,Main,0,1,17,Letter designer,True,,z_DD,z_AA,False,True,False,Sure different,1,3.141592653589793,266.7,2627.0,7.87359778968554,2022-06-28 12:51:46
35,Main,0,1,18,Letter designer,True,,e_BC,e_AD,True,True,False,Probably same,0,0.0,266.7,3628.0,8.196436811235028,2022-06-28 12:51:46
36,Main,0,1,19,Letter designer,True,,r_AA,r_AA,False,True,True,Probably same,1,3.141592653589793,266.7,2692.0,7.898039690764619,2022-06-28 12:51:46
37,Main,0,1,20,Letter designer,True,,n_AA,n_AA,False,True,True,Probably same,1,3.141592653589793,266.7,2324.0,7.751045117971802,2022-06-28 12:51:46
38,Main,0,1,21,Letter designer,True,,h_AD,h_AD,True,True,True,Probably same,1,3.141592653589793,266.7,2417.0,7.790282380703483,2022-06-28 12:51:46
39,Main,0,1,22,Letter designer,True,,c_AD,c_BD,True,False,False,Probably different,1,3.141592653589793,266.7,3187.0,8.066835314417336,2022-06-28 12:51:46
40,Main,0,1,23,Letter designer,True,,b_AD,b_AD,True,True,True,Probably different,0,0.0,266.7,2394.0,7.780720886117918,2022-06-28 12:51:46
41,Main,0,1,24,Letter designer,True,,b_AA,b_AA,False,True,True,Probably same,1,3.141592653589793,266.7,3323.0,8.108623268354595,2022-06-28 12:51:46
42,Main,0,1,25,Letter designer,True,,p_BC,p_AD,True,True,False,Probably different,1,3.141592653589793,266.7,5288.0,8.573195381531523,2022-06-28 12:51:46
43,Main,0,1,26,Letter designer,True,,r_AB,r_AD,True,False,True,Probably same,1,3.141592653589793,266.7,3232.0,8.080856419640986,2022-06-28 12:51:46
44,Main,0,1,27,Letter designer,True,,q_AA,q_AA,False,True,True,Probably same,1,3.141592653589793,266.7,2827.0,7.946971357693591,2022-06-28 12:51:46
45,Main,0,1,28,Letter designer,True,,h_AD,h_BD,True,False,False,Sure different,1,3.141592653589793,266.7,3311.0,8.105005537547246,2022-06-28 12:51:46
46,Main,0,1,29,Letter designer,True,,b_DD,b_AA,False,True,False,Sure different,1,3.141592653589793,266.7,2342.0,7.758760544157663,2022-06-28 12:51:46
47,Main,0,1,30,Letter designer,True,,c_AB,c_AD,True,False,True,Probably same,1,3.141592653589793,266.7,4671.0,8.449128460502108,2022-06-28 12:51:46
48,Main,0,1,31,Letter designer,True,,j_AD,j_BD,True,False,False,Sure different,1,3.141592653589793,266.7,2769.0,7.926241523170962,2022-06-28 12:51:46
49,Main,0,1,32,Letter designer,True,,z_AA,z_AA,False,True,True,Probably same,1,3.141592653589793,266.7,3197.0,8.069968149059841,2022-06-28 12:51:46
50,Main,0,1,33,Letter designer,True,,n_AB,n_AD,True,False,True,Probably same,1,3.141592653589793,266.7,2675.0,7.891704659330107,2022-06-28 12:51:46
51,Main,0,1,34,Letter designer,True,,h_DD,h_AA,False,True,False,Sure different,1,3.141592653589793,266.7,2738.0,7.914983005848394,2022-06-28 12:51:46
52,Main,0,1,35,Letter designer,True,,j_AA,j_DD,False,True,False,Sure different,1,3.141592653589793,266.7,2391.0,7.779466967458324,2022-06-28 12:51:46
53,Main,0,1,36,Letter designer,True,,j_BC,j_AD,True,True,False,Sure different,1,3.141592653589793,266.7,2392.0,7.779885115070522,2022-06-28 12:51:46
54,Main,0,1,37,Letter designer,True,,j_AA,j_AA,False,True,True,Probably same,1,3.141592653589793,266.7,3461.0,8.149312843635345,2022-06-28 12:51:46
55,Main,0,1,38,Letter designer,True,,r_AD,r_BC,True,True,False,Sure different,1,3.141592653589793,266.7,3005.0,8.008032846969307,2022-06-28 12:51:46
56,Main,0,1,39,Letter designer,True,,t_BD,t_AD,True,False,False,Probably same,0,0.0,266.7,2967.0,7.995306620290822,2022-06-28 12:51:46
57,Main,0,1,40,Letter designer,True,,p_DD,p_AA,False,True,False,Sure different,1,3.141592653589793,266.7,2429.0,7.795234929002173,2022-06-28 12:51:46
58,Main,0,1,41,Letter designer,True,,z_AD,z_BD,True,False,False,Sure different,1,3.141592653589793,266.7,2787.0,7.932721027481948,2022-06-28 12:51:46
59,Main,0,1,42,Letter designer,True,,p_AA,p_AA,False,True,True,Probably same,1,3.141592653589793,266.7,2958.0,7.992268643270745,2022-06-28 12:51:46
60,Main,0,1,43,Letter designer,True,,b_BD,b_AD,True,False,False,Sure different,1,3.141592653589793,266.7,2547.0,7.842671474979457,2022-06-28 12:51:46
61,Main,0,1,44,Letter designer,True,,r_DD,r_AA,False,True,False,Sure different,1,3.141592653589793,266.7,3024.0,8.014335737299424,2022-06-28 12:51:46
62,Main,0,1,45,Letter designer,True,,q_BD,q_AD,True,False,False,Probably same,0,0.0,266.7,2967.0,7.995306620290822,2022-06-28 12:51:46
63,Main,0,1,46,Letter designer,True,,e_DD,e_AA,False,True,False,Sure different,1,3.141592653589793,266.7,2850.0,7.955074273262696,2022-06-28 12:51:46
64,Main,0,1,47,Letter designer,True,,t_BC,t_AD,True,True,False,Probably same,0,0.0,266.7,2766.0,7.925157512224703,2022-06-28 12:51:46
65,Main,0,1,48,Letter designer,True,,q_AD,q_AD,True,True,True,Probably same,1,3.141592653589793,266.7,2601.0,7.8636512654486515,2022-06-28 12:51:46
66,Main,0,1,49,Letter designer,True,,a_BD,a_AD,True,False,False,Probably same,0,0.0,266.7,2545.0,7.841885928984623,2022-06-28 12:51:46
67,Main,0,1,50,Letter designer,True,,b_AB,b_AD,True,False,True,Probably different,0,0.0,266.7,3154.0,8.056426767522984,2022-06-28 12:51:46
68,Main,0,1,51,Letter designer,True,,z_AD,z_AB,True,False,True,Probably same,1,3.141592653589793,266.7,3400.0,8.131530710604252,2022-06-28 12:51:46
69,Main,0,1,52,Letter designer,True,,p_AB,p_AD,True,False,True,Probably same,1,3.141592653589793,266.7,2596.0,7.86172707782398,2022-06-28 12:51:46
70,Main,0,1,53,Letter designer,True,,z_AD,z_AD,True,True,True,Sure same,1,3.141592653589793,266.7,3304.0,8.102889134640868,2022-06-28 12:51:46
71,Main,0,1,54,Letter designer,True,,p_BD,p_AD,True,False,False,Sure different,1,3.141592653589793,266.7,2654.0,7.8838232148921525,2022-06-28 12:51:46
72,Main,0,1,55,Letter designer,True,,n_AD,n_AD,True,True,True,Sure different,0,0.0,266.7,2791.0,7.934155233536322,2022-06-28 12:51:46
73,Main,0,1,56,Letter designer,True,,a_AD,a_AD,True,True,True,Sure same,1,3.141592653589793,266.7,3255.0,8.08794755464267,2022-06-28 12:51:46
74,Main,0,1,57,Letter designer,True,,t_AA,t_AA,False,True,True,Probably same,1,3.141592653589793,266.7,3162.0,8.058960017769417,2022-06-28 12:51:46
75,Main,0,1,58,Letter designer,True,,c_AA,c_DD,False,True,False,Sure different,1,3.141592653589793,266.7,2684.0,7.895063498091573,2022-06-28 12:51:46
76,Main,0,1,59,Letter designer,True,,t_AD,t_AD,True,True,True,Sure different,0,0.0,266.7,2659.0,7.88570539124302,2022-06-28 12:51:46
77,Main,0,1,60,Letter designer,True,,t_DD,t_AA,False,True,False,Sure different,1,3.141592653589793,266.7,2440.0,7.799753318287247,2022-06-28 12:51:46
78,Main,0,1,61,Letter designer,True,,p_AD,p_AD,True,True,True,Sure same,1,3.141592653589793,266.7,3322.0,8.10832229017324,2022-06-28 12:51:46
79,Main,0,1,62,Letter designer,True,,a_AA,a_DD,False,True,False,Sure different,1,3.141592653589793,266.7,2695.0,7.899153483343097,2022-06-28 12:51:46
80,Main,0,1,63,Letter designer,True,,a_AA,a_AA,False,True,True,Probably same,1,3.141592653589793,266.7,2892.0,7.969703583278656,2022-06-28 12:51:46
81,Main,0,1,64,Letter designer,True,,t_AD,t_AB,True,False,True,Probably same,1,3.141592653589793,266.7,2508.0,7.827240901752812,2022-06-28 12:51:46
82,Main,0,1,65,Letter designer,True,,h_AD,h_AB,True,False,True,Probably same,1,3.141592653589793,266.7,2895.0,7.970740390007095,2022-06-28 12:51:46
83,Main,0,1,66,Letter designer,True,,z_AD,z_BC,True,True,False,Sure different,1,3.141592653589793,266.7,2555.0,7.845807502637805,2022-06-28 12:51:46
84,Main,0,1,67,Letter designer,True,,q_BC,q_AD,True,True,False,Probably same,0,0.0,266.7,3166.0,8.060224240440958,2022-06-28 12:51:46
85,Main,0,1,68,Letter designer,True,,h_AA,h_AA,False,True,True,Probably same,1,3.141592653589793,266.7,2983.0,8.000684784514748,2022-06-28 12:51:46
86,Main,0,1,69,Letter designer,True,,h_BC,h_AD,True,True,False,Probably different,1,3.141592653589793,266.7,3459.0,8.148734808937169,2022-06-28 12:51:46
87,Main,0,1,70,Letter designer,True,,n_BC,n_AD,True,True,False,Sure different,1,3.141592653589793,266.7,3008.0,8.00903068506973,2022-06-28 12:51:46
88,Main,0,1,71,Letter designer,True,,a_AD,a_BC,True,True,False,Probably same,0,0.0,266.7,3742.0,8.227375506834035,2022-06-28 12:51:46
89,Main,0,1,72,Letter designer,True,,e_AA,e_AA,False,True,True,Probably same,1,3.141592653589793,266.7,2424.0,7.793174347189205,2022-06-28 12:51:46
90,Main,0,0,19,Letter designer,True,,u_BD,u_AD,True,False,False,Sure different,1,3.141592653589793,725.0,3790.0,8.240121298076472,2022-06-28 12:51:46
91,Main,0,0,20,Letter designer,True,,i_AD,i_AD,True,True,True,Probably same,1,3.141592653589793,800.0,4667.0,8.448271745949816,2022-06-28 12:51:46
92,Main,1,0,1,Other designer,True,,d_BC,d_AD,True,True,False,Sure different,1,3.141592653589793,800.0,13100.0,9.480367509189243,2022-06-27 14:52:05
93,Main,1,0,2,Other designer,True,,u_AA,u_DD,False,True,False,Sure same,0,0.0,800.0,15284.0,9.63456180856679,2022-06-27 14:52:05
94,Main,1,0,3,Other designer,True,,d_DD,d_AA,False,True,False,Sure same,0,0.0,800.0,4671.0,8.449128460502108,2022-06-27 14:52:05
95,Main,1,0,4,Other designer,True,,d_AA,d_AA,False,True,True,Sure same,1,3.141592653589793,725.0,3649.0,8.202208436436448,2022-06-27 14:52:05
96,Main,1,0,5,Other designer,True,,i_DD,i_AA,False,True,False,Sure different,1,3.141592653589793,650.0,3529.0,8.16876982367527,2022-06-27 14:52:05
97,Main,1,0,6,Other designer,True,,d_AD,d_BC,True,True,False,Sure same,0,0.0,575.0,3267.0,8.09162741160107,2022-06-27 14:52:05
98,Main,1,0,7,Other designer,True,,i_BD,i_AD,True,False,False,Sure different,1,3.141592653589793,500.0,3517.0,8.165363632473982,2022-06-27 14:52:05
99,Main,1,0,8,Other designer,True,,d_BD,d_AD,True,False,False,Sure same,0,0.0,425.0,3083.0,8.03365842788615,2022-06-27 14:52:05
100,Main,1,0,9,Other designer,True,,u_AB,u_AD,True,False,True,Sure same,1,3.141592653589793,350.0,2854.0,7.956476798036782,2022-06-27 14:52:05
101,Main,1,0,10,Other designer,True,,d_AB,d_AD,True,False,True,Sure different,0,0.0,275.0,7380.0,8.906528917594517,2022-06-27 14:52:05
102,Main,1,0,11,Other designer,True,,u_AD,u_BC,True,True,False,Sure different,1,3.141592653589793,200.0,3083.0,8.03365842788615,2022-06-27 14:52:05
103,Main,1,0,12,Other designer,True,,u_AA,u_AA,False,True,True,Sure different,0,0.0,200.0,2866.0,7.960672608388117,2022-06-27 14:52:05
104,Main,1,0,13,Other designer,True,,i_BC,i_AD,True,True,False,Sure different,1,3.141592653589793,275.0,4171.0,8.335911094196945,2022-06-27 14:52:05
105,Main,1,0,14,Other designer,True,,i_AB,i_AD,True,False,True,Sure same,1,3.141592653589793,350.0,3097.0,8.038189179973203,2022-06-27 14:52:05
106,Main,1,0,15,Other designer,True,,u_AD,u_AD,True,True,True,Sure same,1,3.141592653589793,425.0,2933.0,7.983781068977451,2022-06-27 14:52:05
107,Main,1,0,16,Other designer,True,,u_DD,u_AA,False,True,False,Sure different,1,3.141592653589793,500.0,2867.0,7.96102146588337,2022-06-27 14:52:05
108,Main,1,0,17,Other designer,True,,d_AD,d_AD,True,True,True,Sure same,1,3.141592653589793,575.0,3116.0,8.044305406990638,2022-06-27 14:52:05
109,Main,1,0,18,Other designer,True,,i_AA,i_AA,False,True,True,Sure same,1,3.141592653589793,650.0,4051.0,8.30671904320269,2022-06-27 14:52:05
110,Main,1,1,1,Other designer,True,,h_AD,h_AD,True,True,True,Sure same,1,3.141592653589793,344.4,5360.0,8.586719254064848,2022-06-27 14:52:05
111,Main,1,1,2,Other designer,True,,h_AA,h_AA,False,True,True,Sure same,1,3.141592653589793,344.4,2865.0,7.9603236291488395,2022-06-27 14:52:05
112,Main,1,1,3,Other designer,True,,c_AA,c_AA,False,True,True,Sure different,0,0.0,344.4,3883.0,8.264363329731667,2022-06-27 14:52:05
113,Main,1,1,4,Other designer,True,,n_AB,n_AD,True,False,True,Sure same,1,3.141592653589793,344.4,3151.0,8.055475141757274,2022-06-27 14:52:05
114,Main,1,1,5,Other designer,True,,q_AA,q_AA,False,True,True,Sure different,0,0.0,344.4,4288.0,8.363575702750637,2022-06-27 14:52:05
115,Main,1,1,6,Other designer,True,,h_DD,h_AA,False,True,False,Sure different,1,3.141592653589793,344.4,2979.0,7.999342952713282,2022-06-27 14:52:05
116,Main,1,1,7,Other designer,True,,e_AD,e_BC,True,True,False,Sure different,1,3.141592653589793,344.4,5187.0,8.553910774351401,2022-06-27 14:52:05
117,Main,1,1,8,Other designer,True,,n_AA,n_DD,False,True,False,Sure different,1,3.141592653589793,344.4,2879.0,7.965198290612176,2022-06-27 14:52:05
118,Main,1,1,9,Other designer,True,,t_AD,t_AB,True,False,True,Sure different,0,0.0,344.4,3252.0,8.087025470667701,2022-06-27 14:52:05
119,Main,1,1,10,Other designer,True,,z_AD,z_AD,True,True,True,Sure different,0,0.0,344.4,3098.0,8.038512020976814,2022-06-27 14:52:05
120,Main,1,1,11,Other designer,True,,b_AD,b_AD,True,True,True,Sure same,1,3.141592653589793,344.4,2968.0,7.995643604287271,2022-06-27 14:52:05
121,Main,1,1,12,Other designer,True,,j_BD,j_AD,True,False,False,Sure same,0,0.0,344.4,3071.0,8.029758520440822,2022-06-27 14:52:05
122,Main,1,1,13,Other designer,True,,r_AD,r_AB,True,False,True,Sure different,0,0.0,344.4,3029.0,8.015987811027237,2022-06-27 14:52:05
123,Main,1,1,14,Other designer,True,,z_AD,z_AB,True,False,True,Sure different,0,0.0,344.4,3134.0,8.050065422915965,2022-06-27 14:52:05
124,Main,1,1,15,Other designer,True,,h_AB,h_AD,True,False,True,Sure same,1,3.141592653589793,344.4,2902.0,7.973155433444133,2022-06-27 14:52:05
125,Main,1,1,16,Other designer,True,,a_AB,a_AD,True,False,True,Sure different,0,0.0,344.4,3000.0,8.006367567650246,2022-06-27 14:52:05
126,Main,1,1,17,Other designer,True,,c_AD,c_BC,True,True,False,Sure different,1,3.141592653589793,344.4,3248.0,8.085794701281568,2022-06-27 14:52:05
127,Main,1,1,18,Other designer,True,,q_AD,q_AD,True,True,True,Sure same,1,3.141592653589793,344.4,3083.0,8.03365842788615,2022-06-27 14:52:05
128,Main,1,1,19,Other designer,True,,r_AD,r_BD,True,False,False,Sure same,0,0.0,344.4,3087.0,8.034955024502159,2022-06-27 14:52:05
129,Main,1,1,20,Other designer,True,,p_AD,p_AD,True,True,True,Sure same,1,3.141592653589793,344.4,2997.0,8.005367067316664,2022-06-27 14:52:05
130,Main,1,1,21,Other designer,True,,z_BD,z_AD,True,False,False,Sure same,0,0.0,344.4,2951.0,7.989899374942939,2022-06-27 14:52:05
131,Main,1,1,22,Other designer,True,,j_AA,j_AA,False,True,True,Sure same,1,3.141592653589793,344.4,2867.0,7.96102146588337,2022-06-27 14:52:05
132,Main,1,1,23,Other designer,True,,r_DD,r_AA,False,True,False,Sure different,1,3.141592653589793,344.4,2785.0,7.932003152361385,2022-06-27 14:52:05
133,Main,1,1,24,Other designer,True,,j_AD,j_BC,True,True,False,Sure different,1,3.141592653589793,344.4,3264.0,8.090708716083997,2022-06-27 14:52:05
134,Main,1,1,25,Other designer,True,,a_AA,a_DD,False,True,False,Sure different,1,3.141592653589793,344.4,3133.0,8.049746290952191,2022-06-27 14:52:05
135,Main,1,1,26,Other designer,True,,t_AA,t_DD,False,True,False,Sure different,1,3.141592653589793,344.4,3050.0,8.022896869601457,2022-06-27 14:52:05
136,Main,1,1,27,Other designer,True,,r_AD,r_BC,True,True,False,Sure same,0,0.0,344.4,3370.0,8.122668023346407,2022-06-27 14:52:05
137,Main,1,1,28,Other designer,True,,b_BD,b_AD,True,False,False,Sure same,0,0.0,344.4,3081.0,8.033009498596668,2022-06-27 14:52:05
138,Main,1,1,29,Other designer,True,,b_AD,b_AB,True,False,True,Sure same,1,3.141592653589793,344.4,2782.0,7.930925372483388,2022-06-27 14:52:05
139,Main,1,1,30,Other designer,True,,p_AA,p_DD,False,True,False,Sure different,1,3.141592653589793,344.4,2869.0,7.9617188159813645,2022-06-27 14:52:05
140,Main,1,1,31,Other designer,True,,e_AD,e_AB,True,False,True,Sure different,0,0.0,344.4,2835.0,7.949797216161852,2022-06-27 14:52:05
141,Main,1,1,32,Other designer,True,,t_AD,t_AD,True,True,True,Sure same,1,3.141592653589793,344.4,3065.0,8.027802848370312,2022-06-27 14:52:05
142,Main,1,1,33,Other designer,True,,n_BD,n_AD,True,False,False,Sure same,0,0.0,344.4,3799.0,8.242493153187626,2022-06-27 14:52:05
143,Main,1,1,34,Other designer,True,,b_DD,b_AA,False,True,False,Sure different,1,3.141592653589793,344.4,3384.0,8.126813720726114,2022-06-27 14:52:05
144,Main,1,1,35,Other designer,True,,q_AA,q_DD,False,True,False,Sure different,1,3.141592653589793,344.4,3253.0,8.087332926473351,2022-06-27 14:52:05
145,Main,1,1,36,Other designer,True,,r_AA,r_AA,False,True,True,Sure different,0,0.0,344.4,3147.0,8.054204897064407,2022-06-27 14:52:05
146,Main,1,1,37,Other designer,True,,r_AD,r_AD,True,True,True,Sure same,1,3.141592653589793,344.4,3217.0,8.076204527239026,2022-06-27 14:52:05
147,Main,1,1,38,Other designer,True,,q_AD,q_BC,True,True,False,Sure same,0,0.0,344.4,3050.0,8.022896869601457,2022-06-27 14:52:05
148,Main,1,1,39,Other designer,True,,e_AD,e_BD,True,False,False,Sure same,0,0.0,344.4,2909.0,7.975564658495202,2022-06-27 14:52:05
149,Main,1,1,40,Other designer,True,,q_BD,q_AD,True,False,False,Sure same,0,0.0,344.4,2859.0,7.958227192322312,2022-06-27 14:52:05
150,Main,1,1,41,Other designer,True,,a_AD,a_BD,True,False,False,Sure different,1,3.141592653589793,344.4,2799.0,7.937017489515454,2022-06-27 14:52:05
151,Main,1,1,42,Other designer,True,,z_AA,z_AA,False,True,True,Sure different,0,0.0,344.4,3085.0,8.034306936339489,2022-06-27 14:52:05
152,Main,1,1,43,Other designer,True,,t_AA,t_AA,False,True,True,Sure same,1,3.141592653589793,344.4,2952.0,7.990238185720363,2022-06-27 14:52:05
153,Main,1,1,44,Other designer,True,,b_AA,b_AA,False,True,True,Sure same,1,3.141592653589793,344.4,3364.0,8.120886021092838,2022-06-27 14:52:05
154,Main,1,1,45,Other designer,True,,h_AD,h_BC,True,True,False,Sure same,0,0.0,344.4,2755.0,7.9211727215870145,2022-06-27 14:52:05
155,Main,1,1,46,Other designer,True,,n_AD,n_BC,True,True,False,Sure same,0,0.0,344.4,3029.0,8.015987811027237,2022-06-27 14:52:05
156,Main,1,1,47,Other designer,True,,c_AD,c_AD,True,True,True,Sure same,1,3.141592653589793,344.4,2720.0,7.908387159290043,2022-06-27 14:52:05
157,Main,1,1,48,Other designer,True,,a_AA,a_AA,False,True,True,Sure same,1,3.141592653589793,344.4,2697.0,7.89989532313973,2022-06-27 14:52:05
158,Main,1,1,49,Other designer,True,,q_AD,q_AB,True,False,True,Sure different,0,0.0,344.4,3100.0,8.039157390473237,2022-06-27 14:52:05
159,Main,1,1,50,Other designer,True,,c_BD,c_AD,True,False,False,Sure same,0,0.0,344.4,2967.0,7.995306620290822,2022-06-27 14:52:05
160,Main,1,1,51,Other designer,True,,j_AD,j_AD,True,True,True,Sure same,1,3.141592653589793,344.4,3871.0,8.261268150577648,2022-06-27 14:52:05
161,Main,1,1,52,Other designer,True,,t_AD,t_BC,True,True,False,Sure same,0,0.0,344.4,2779.0,7.929846429742503,2022-06-27 14:52:05
162,Main,1,1,53,Other designer,True,,t_AD,t_BD,True,False,False,Sure same,0,0.0,344.4,4100.0,8.318742252692399,2022-06-27 14:52:05
163,Main,1,1,54,Other designer,True,,p_AA,p_AA,False,True,True,Sure same,1,3.141592653589793,344.4,2800.0,7.937374696163295,2022-06-27 14:52:05
164,Main,1,1,55,Other designer,True,,b_AD,b_BC,True,True,False,Sure same,0,0.0,344.4,2754.0,7.9208096792886,2022-06-27 14:52:05
165,Main,1,1,56,Other designer,True,,c_AA,c_DD,False,True,False,Sure different,1,3.141592653589793,344.4,2734.0,7.913521017283895,2022-06-27 14:52:05
166,Main,1,1,57,Other designer,True,,a_BC,a_AD,True,True,False,Sure same,0,0.0,344.4,3379.0,8.12533508671429,2022-06-27 14:52:05
167,Main,1,1,58,Other designer,True,,j_DD,j_AA,False,True,False,Sure different,1,3.141592653589793,344.4,2849.0,7.954723334497908,2022-06-27 14:52:05
168,Main,1,1,59,Other designer,True,,e_AD,e_AD,True,True,True,Sure different,0,0.0,344.4,2921.0,7.979681302387741,2022-06-27 14:52:05
169,Main,1,1,60,Other designer,True,,e_AA,e_AA,False,True,True,Sure same,1,3.141592653589793,344.4,2831.0,7.9483852851118995,2022-06-27 14:52:05
170,Main,1,1,61,Other designer,True,,p_AD,p_BD,True,False,False,Sure same,0,0.0,344.4,2867.0,7.96102146588337,2022-06-27 14:52:05
171,Main,1,1,62,Other designer,True,,z_AD,z_BC,True,True,False,Sure same,0,0.0,344.4,3317.0,8.106816038947052,2022-06-27 14:52:05
172,Main,1,1,63,Other designer,True,,n_AA,n_AA,False,True,True,Sure same,1,3.141592653589793,344.4,2853.0,7.9561263512135,2022-06-27 14:52:05
173,Main,1,1,64,Other designer,True,,e_AA,e_DD,False,True,False,Sure different,1,3.141592653589793,344.4,2981.0,8.000014093678072,2022-06-27 14:52:05
174,Main,1,1,65,Other designer,True,,p_BC,p_AD,True,True,False,Sure same,0,0.0,344.4,3282.0,8.096208271650037,2022-06-27 14:52:05
175,Main,1,1,66,Other designer,True,,z_AA,z_DD,False,True,False,Sure different,1,3.141592653589793,344.4,2933.0,7.983781068977451,2022-06-27 14:52:05
176,Main,1,1,67,Other designer,True,,c_AD,c_AB,True,False,True,Sure different,0,0.0,344.4,3104.0,8.04044688130311,2022-06-27 14:52:05
177,Main,1,1,68,Other designer,True,,n_AD,n_AD,True,True,True,Sure same,1,3.141592653589793,344.4,2964.0,7.994294986415977,2022-06-27 14:52:05
178,Main,1,1,69,Other designer,True,,h_AD,h_BD,True,False,False,Sure same,0,0.0,344.4,3051.0,8.02322468471667,2022-06-27 14:52:05
179,Main,1,1,70,Other designer,True,,j_AB,j_AD,True,False,True,Sure different,0,0.0,344.4,2984.0,8.001019961323651,2022-06-27 14:52:05
180,Main,1,1,71,Other designer,True,,p_AD,p_AB,True,False,True,Sure same,1,3.141592653589793,344.4,3135.0,8.050384453067021,2022-06-27 14:52:05
181,Main,1,1,72,Other designer,True,,a_AD,a_AD,True,True,True,Sure same,1,3.141592653589793,344.4,3064.0,8.027476530860483,2022-06-27 14:52:05
182,Main,1,0,19,Other designer,True,,u_AD,u_BD,True,False,False,Sure different,1,3.141592653589793,725.0,3537.0,8.17103418920548,2022-06-27 14:52:05
183,Main,1,0,20,Other designer,True,,i_AD,i_AD,True,True,True,Sure same,1,3.141592653589793,800.0,3746.0,8.228443883004033,2022-06-27 14:52:05
184,Main,2,0,1,Graphic designer,True,,d_AD,d_BC,True,True,False,Sure different,1,3.141592653589793,800.0,6498.0,8.779249716229046,2022-06-27 14:50:45
185,Main,2,0,2,Graphic designer,True,,u_AA,u_DD,False,True,False,Sure different,1,3.141592653589793,800.0,3445.0,8.144679183447758,2022-06-27 14:50:45
186,Main,2,0,3,Graphic designer,True,,d_DD,d_AA,False,True,False,Sure different,1,3.141592653589793,800.0,3775.0,8.236155661683124,2022-06-27 14:50:45
187,Main,2,0,4,Graphic designer,True,,d_AA,d_AA,False,True,True,Sure same,1,3.141592653589793,725.0,4315.0,8.36985260351753,2022-06-27 14:50:45
188,Main,2,0,5,Graphic designer,True,,i_DD,i_AA,False,True,False,Sure different,1,3.141592653589793,650.0,3388.0,8.127995055771946,2022-06-27 14:50:45
189,Main,2,0,6,Graphic designer,True,,d_AD,d_BC,True,True,False,Sure different,1,3.141592653589793,575.0,3153.0,8.056109659545061,2022-06-27 14:50:45
190,Main,2,0,7,Graphic designer,True,,i_AD,i_BD,True,False,False,Sure different,1,3.141592653589793,500.0,3180.0,8.064636475774222,2022-06-27 14:50:45
191,Main,2,0,8,Graphic designer,True,,d_AD,d_BD,True,False,False,Sure different,1,3.141592653589793,425.0,3530.0,8.169053149927343,2022-06-27 14:50:45
192,Main,2,0,9,Graphic designer,True,,u_AD,u_AB,True,False,True,Sure same,1,3.141592653589793,350.0,3185.0,8.066207568006265,2022-06-27 14:50:45
193,Main,2,0,10,Graphic designer,True,,d_AB,d_AD,True,False,True,Sure different,0,0.0,275.0,3160.0,8.058327306580958,2022-06-27 14:50:45
194,Main,2,0,11,Graphic designer,True,,u_AD,u_BC,True,True,False,Sure different,1,3.141592653589793,200.0,2467.0,7.810758116529357,2022-06-27 14:50:45
195,Main,2,0,12,Graphic designer,True,,u_AA,u_AA,False,True,True,Sure same,1,3.141592653589793,200.0,2973.0,7.997326822998097,2022-06-27 14:50:45
196,Main,2,0,13,Graphic designer,True,,i_BC,i_AD,True,True,False,Sure different,1,3.141592653589793,275.0,2921.0,7.979681302387741,2022-06-27 14:50:45
197,Main,2,0,14,Graphic designer,True,,i_AD,i_AB,True,False,True,Sure same,1,3.141592653589793,350.0,3011.0,8.010027528481734,2022-06-27 14:50:45
198,Main,2,0,15,Graphic designer,True,,u_AD,u_AD,True,True,True,Sure same,1,3.141592653589793,425.0,3650.0,8.202482446576537,2022-06-27 14:50:45
199,Main,2,0,16,Graphic designer,True,,u_DD,u_AA,False,True,False,Sure different,1,3.141592653589793,500.0,3256.0,8.08825472712243,2022-06-27 14:50:45
200,Main,2,0,17,Graphic designer,True,,d_AD,d_AD,True,True,True,Sure same,1,3.141592653589793,575.0,4097.0,8.318010277546872,2022-06-27 14:50:45
201,Main,2,0,18,Graphic designer,True,,i_AA,i_AA,False,True,True,Sure same,1,3.141592653589793,650.0,3195.0,8.069342366811636,2022-06-27 14:50:45
202,Main,2,1,1,Graphic designer,True,,h_AD,h_BC,True,True,False,Sure different,1,3.141592653589793,227.8,5773.0,8.660947155060933,2022-06-27 14:50:45
203,Main,2,1,2,Graphic designer,True,,r_AD,r_AB,True,False,True,Sure same,1,3.141592653589793,227.8,3122.0,8.046229101075378,2022-06-27 14:50:45
204,Main,2,1,3,Graphic designer,True,,p_DD,p_AA,False,True,False,Sure different,1,3.141592653589793,227.8,2824.0,7.945909598613133,2022-06-27 14:50:45
205,Main,2,1,4,Graphic designer,True,,e_BD,e_AD,True,False,False,Sure same,0,0.0,227.8,3169.0,8.06117135969092,2022-06-27 14:50:45
206,Main,2,1,5,Graphic designer,True,,j_AA,j_DD,False,True,False,Sure different,1,3.141592653589793,227.8,2784.0,7.931644021454311,2022-06-27 14:50:45
207,Main,2,1,6,Graphic designer,True,,p_AD,p_AB,True,False,True,Sure same,1,3.141592653589793,227.8,2947.0,7.988542982737695,2022-06-27 14:50:45
208,Main,2,1,7,Graphic designer,True,,r_BD,r_AD,True,False,False,Sure same,0,0.0,227.8,3592.0,8.18646442942209,2022-06-27 14:50:45
209,Main,2,1,8,Graphic designer,True,,h_BD,h_AD,True,False,False,Sure different,1,3.141592653589793,227.8,2723.0,7.909489492673759,2022-06-27 14:50:45
210,Main,2,1,9,Graphic designer,True,,t_AD,t_AD,True,True,True,Sure same,1,3.141592653589793,227.8,2859.0,7.958227192322312,2022-06-27 14:50:45
211,Main,2,1,10,Graphic designer,True,,e_AA,e_AA,False,True,True,Sure same,1,3.141592653589793,227.8,2661.0,7.886457270977689,2022-06-27 14:50:45
212,Main,2,1,11,Graphic designer,True,,h_DD,h_AA,False,True,False,Sure different,1,3.141592653589793,227.8,2632.0,7.875499292445208,2022-06-27 14:50:45
213,Main,2,1,12,Graphic designer,True,,z_AD,z_AD,True,True,True,Sure same,1,3.141592653589793,227.8,3494.0,8.158802490694002,2022-06-27 14:50:45
214,Main,2,1,13,Graphic designer,True,,c_BD,c_AD,True,False,False,Sure different,1,3.141592653589793,227.8,3588.0,8.185350223178686,2022-06-27 14:50:45
215,Main,2,1,14,Graphic designer,True,,q_BD,q_AD,True,False,False,Sure same,0,0.0,227.8,3423.0,8.138272638530186,2022-06-27 14:50:45
216,Main,2,1,15,Graphic designer,True,,b_AD,b_AD,True,True,True,Sure same,1,3.141592653589793,227.8,2693.0,7.898411092811599,2022-06-27 14:50:45
217,Main,2,1,16,Graphic designer,True,,a_AB,a_AD,True,False,True,Sure same,1,3.141592653589793,227.8,2644.0,7.880048200971577,2022-06-27 14:50:45
218,Main,2,1,17,Graphic designer,True,,t_AB,t_AD,True,False,True,Sure same,1,3.141592653589793,227.8,2847.0,7.954021087278037,2022-06-27 14:50:45
219,Main,2,1,18,Graphic designer,True,,e_AA,e_DD,False,True,False,Sure different,1,3.141592653589793,227.8,2964.0,7.994294986415977,2022-06-27 14:50:45
220,Main,2,1,19,Graphic designer,True,,b_AA,b_AA,False,True,True,Sure same,1,3.141592653589793,227.8,3541.0,8.172164452111904,2022-06-27 14:50:45
221,Main,2,1,20,Graphic designer,True,,z_AA,z_AA,False,True,True,Sure same,1,3.141592653589793,227.8,2604.0,7.86480400332846,2022-06-27 14:50:45
222,Main,2,1,21,Graphic designer,True,,a_BC,a_AD,True,True,False,Sure same,0,0.0,227.8,2770.0,7.926602599181384,2022-06-27 14:50:45
223,Main,2,1,22,Graphic designer,True,,n_AA,n_AA,False,True,True,Sure same,1,3.141592653589793,227.8,2795.0,7.9355873855892,2022-06-27 14:50:45
224,Main,2,1,23,Graphic designer,True,,t_AA,t_AA,False,True,True,Sure same,1,3.141592653589793,227.8,2598.0,7.862497197230545,2022-06-27 14:50:45
225,Main,2,1,24,Graphic designer,True,,q_AA,q_AA,False,True,True,Sure same,1,3.141592653589793,227.8,2840.0,7.951559331155252,2022-06-27 14:50:45
226,Main,2,1,25,Graphic designer,True,,q_DD,q_AA,False,True,False,Sure different,1,3.141592653589793,227.8,2760.0,7.9229859587111955,2022-06-27 14:50:45
227,Main,2,1,26,Graphic designer,True,,a_AD,a_BD,True,False,False,Sure same,0,0.0,227.8,3311.0,8.105005537547246,2022-06-27 14:50:45
228,Main,2,1,27,Graphic designer,True,,c_BC,c_AD,True,True,False,Sure different,1,3.141592653589793,227.8,2810.0,7.940939762327791,2022-06-27 14:50:45
229,Main,2,1,28,Graphic designer,True,,c_AA,c_DD,False,True,False,Sure different,1,3.141592653589793,227.8,2517.0,7.830822995135316,2022-06-27 14:50:45
230,Main,2,1,29,Graphic designer,True,,r_AA,r_AA,False,True,True,Sure same,1,3.141592653589793,227.8,2878.0,7.964850887447313,2022-06-27 14:50:45
231,Main,2,1,30,Graphic designer,True,,b_AA,b_DD,False,True,False,Sure different,1,3.141592653589793,227.8,2680.0,7.893572073504902,2022-06-27 14:50:45
232,Main,2,1,31,Graphic designer,True,,j_AB,j_AD,True,False,True,Sure different,0,0.0,227.8,2802.0,7.938088726896952,2022-06-27 14:50:45
233,Main,2,1,32,Graphic designer,True,,n_AD,n_BD,True,False,False,Sure different,1,3.141592653589793,227.8,2925.0,7.981049759665957,2022-06-27 14:50:45
234,Main,2,1,33,Graphic designer,True,,r_BC,r_AD,True,True,False,Sure different,1,3.141592653589793,227.8,2958.0,7.992268643270745,2022-06-27 14:50:45
235,Main,2,1,34,Graphic designer,True,,e_AD,e_BC,True,True,False,Sure different,1,3.141592653589793,227.8,3008.0,8.00903068506973,2022-06-27 14:50:45
236,Main,2,1,35,Graphic designer,True,,c_AD,c_AD,True,True,True,Sure different,0,0.0,227.8,3212.0,8.074649075066652,2022-06-27 14:50:45
237,Main,2,1,36,Graphic designer,True,,q_AD,q_AD,True,True,True,Sure same,1,3.141592653589793,227.8,2964.0,7.994294986415977,2022-06-27 14:50:45
238,Main,2,1,37,Graphic designer,True,,b_AD,b_BC,True,True,False,Sure different,1,3.141592653589793,227.8,3294.0,8.099857910737585,2022-06-27 14:50:45
239,Main,2,1,38,Graphic designer,True,,t_BC,t_AD,True,True,False,Sure same,0,0.0,227.8,2902.0,7.973155433444133,2022-06-27 14:50:45
240,Main,2,1,39,Graphic designer,True,,r_AD,r_AD,True,True,True,Sure same,1,3.141592653589793,227.8,2787.0,7.932721027481948,2022-06-27 14:50:45
241,Main,2,1,40,Graphic designer,True,,c_AA,c_AA,False,True,True,Sure same,1,3.141592653589793,227.8,2769.0,7.926241523170962,2022-06-27 14:50:45
242,Main,2,1,41,Graphic designer,True,,p_AD,p_AD,True,True,True,Sure same,1,3.141592653589793,227.8,3190.0,8.06777619577889,2022-06-27 14:50:45
243,Main,2,1,42,Graphic designer,True,,p_BC,p_AD,True,True,False,Sure different,1,3.141592653589793,227.8,3005.0,8.008032846969307,2022-06-27 14:50:45
244,Main,2,1,43,Graphic designer,True,,a_AD,a_AD,True,True,True,Sure same,1,3.141592653589793,227.8,2693.0,7.898411092811599,2022-06-27 14:50:45
245,Main,2,1,44,Graphic designer,True,,b_AD,b_BD,True,False,False,Sure different,1,3.141592653589793,227.8,2555.0,7.845807502637805,2022-06-27 14:50:45
246,Main,2,1,45,Graphic designer,True,,h_AD,h_AB,True,False,True,Sure same,1,3.141592653589793,227.8,2984.0,8.001019961323651,2022-06-27 14:50:45
247,Main,2,1,46,Graphic designer,True,,j_BD,j_AD,True,False,False,Sure different,1,3.141592653589793,227.8,2929.0,7.982416346827733,2022-06-27 14:50:45
248,Main,2,1,47,Graphic designer,True,,n_AA,n_DD,False,True,False,Sure different,1,3.141592653589793,227.8,2604.0,7.86480400332846,2022-06-27 14:50:45
249,Main,2,1,48,Graphic designer,True,,h_AD,h_AD,True,True,True,Sure same,1,3.141592653589793,227.8,2879.0,7.965198290612176,2022-06-27 14:50:45
250,Main,2,1,49,Graphic designer,True,,e_AD,e_AB,True,False,True,Sure same,1,3.141592653589793,227.8,2794.0,7.935229539816907,2022-06-27 14:50:45
251,Main,2,1,50,Graphic designer,True,,c_AD,c_AB,True,False,True,Probably different,0,0.0,227.8,3669.0,8.207674424355282,2022-06-27 14:50:45
252,Main,2,1,51,Graphic designer,True,,z_AD,z_BC,True,True,False,Sure different,1,3.141592653589793,227.8,2739.0,7.915348169263078,2022-06-27 14:50:45
253,Main,2,1,52,Graphic designer,True,,e_AD,e_AD,True,True,True,Probably same,1,3.141592653589793,227.8,2603.0,7.864419904994565,2022-06-27 14:50:45
254,Main,2,1,53,Graphic designer,True,,j_AD,j_AD,True,True,True,Sure same,1,3.141592653589793,227.8,2762.0,7.923710333969238,2022-06-27 14:50:45
255,Main,2,1,54,Graphic designer,True,,p_AA,p_AA,False,True,True,Probably same,1,3.141592653589793,227.8,3606.0,8.190354403763262,2022-06-27 14:50:45
256,Main,2,1,55,Graphic designer,True,,q_AD,q_BC,True,True,False,Probably different,1,3.141592653589793,227.8,2841.0,7.951911381854188,2022-06-27 14:50:45
257,Main,2,1,56,Graphic designer,True,,a_AA,a_DD,False,True,False,Sure different,1,3.141592653589793,227.8,2979.0,7.999342952713282,2022-06-27 14:50:45
258,Main,2,1,57,Graphic designer,True,,j_AA,j_AA,False,True,True,Probably same,1,3.141592653589793,227.8,2889.0,7.968665700466235,2022-06-27 14:50:45
259,Main,2,1,58,Graphic designer,True,,h_AA,h_AA,False,True,True,Probably same,1,3.141592653589793,227.8,2673.0,7.890956716138919,2022-06-27 14:50:45
260,Main,2,1,59,Graphic designer,True,,n_AD,n_AB,True,False,True,Probably same,1,3.141592653589793,227.8,2939.0,7.985824666418917,2022-06-27 14:50:45
261,Main,2,1,60,Graphic designer,True,,p_BD,p_AD,True,False,False,Sure different,1,3.141592653589793,227.8,2576.0,7.853993087224244,2022-06-27 14:50:45
262,Main,2,1,61,Graphic designer,True,,t_AD,t_BD,True,False,False,Probably different,1,3.141592653589793,227.8,3073.0,8.030409562130485,2022-06-27 14:50:45
263,Main,2,1,62,Graphic designer,True,,r_AA,r_DD,False,True,False,Sure different,1,3.141592653589793,227.8,2799.0,7.937017489515454,2022-06-27 14:50:45
264,Main,2,1,63,Graphic designer,True,,j_AD,j_BC,True,True,False,Sure different,1,3.141592653589793,227.8,2399.0,7.782807262839695,2022-06-27 14:50:45
265,Main,2,1,64,Graphic designer,True,,q_AD,q_AB,True,False,True,Probably same,1,3.141592653589793,227.8,2932.0,7.983440063006542,2022-06-27 14:50:45
266,Main,2,1,65,Graphic designer,True,,z_DD,z_AA,False,True,False,Sure different,1,3.141592653589793,227.8,3159.0,8.058010800802085,2022-06-27 14:50:45
267,Main,2,1,66,Graphic designer,True,,z_AD,z_BD,True,False,False,Sure different,1,3.141592653589793,227.8,2482.0,7.8168199657645525,2022-06-27 14:50:45
268,Main,2,1,67,Graphic designer,True,,t_DD,t_AA,False,True,False,Sure different,1,3.141592653589793,227.8,2764.0,7.92443418488756,2022-06-27 14:50:45
269,Main,2,1,68,Graphic designer,True,,b_AD,b_AB,True,False,True,Probably same,1,3.141592653589793,227.8,3004.0,8.007700012884026,2022-06-27 14:50:45
270,Main,2,1,69,Graphic designer,True,,n_AD,n_BC,True,True,False,Sure different,1,3.141592653589793,227.8,2973.0,7.997326822998097,2022-06-27 14:50:45
271,Main,2,1,70,Graphic designer,True,,z_AD,z_AB,True,False,True,Probably different,0,0.0,227.8,2743.0,7.916807490937603,2022-06-27 14:50:45
272,Main,2,1,71,Graphic designer,True,,n_AD,n_AD,True,True,True,Probably same,1,3.141592653589793,227.8,3395.0,8.130059039992796,2022-06-27 14:50:45
273,Main,2,1,72,Graphic designer,True,,a_AA,a_AA,False,True,True,Sure same,1,3.141592653589793,227.8,2720.0,7.908387159290043,2022-06-27 14:50:45
274,Main,2,0,19,Graphic designer,True,,u_BD,u_AD,True,False,False,Sure different,1,3.141592653589793,725.0,3486.0,8.156510226079966,2022-06-27 14:50:45
275,Main,2,0,20,Graphic designer,True,,i_AD,i_AD,True,True,True,Sure different,0,0.0,800.0,3542.0,8.17244681834278,2022-06-27 14:50:45
276,Main,3,0,1,Letter designer,True,,d_BC,d_AD,True,True,False,Sure same,0,0.0,800.0,13704.0,9.525443040003957,2022-06-27 07:46:24
277,Main,3,0,2,Letter designer,True,,u_AA,u_DD,False,True,False,Sure different,1,3.141592653589793,800.0,5595.0,8.629628620746026,2022-06-27 07:46:24
278,Main,3,0,3,Letter designer,True,,d_DD,d_AA,False,True,False,Sure different,1,3.141592653589793,800.0,3602.0,8.189244525735901,2022-06-27 07:46:24
279,Main,3,0,4,Letter designer,True,,d_AA,d_AA,False,True,True,Probably same,1,3.141592653589793,725.0,9376.0,9.145908511816794,2022-06-27 07:46:24
280,Main,3,0,5,Letter designer,True,,i_DD,i_AA,False,True,False,Sure different,1,3.141592653589793,650.0,5916.0,8.68541582383069,2022-06-27 07:46:24
281,Main,3,0,6,Letter designer,True,,d_AD,d_BC,True,True,False,Sure different,1,3.141592653589793,575.0,4380.0,8.384804003370492,2022-06-27 07:46:24
282,Main,3,0,7,Letter designer,True,,i_AD,i_BD,True,False,False,Probably different,1,3.141592653589793,500.0,11509.0,9.350884616968491,2022-06-27 07:46:24
283,Main,3,0,8,Letter designer,True,,d_BD,d_AD,True,False,False,Sure different,1,3.141592653589793,425.0,3206.0,8.072779333169498,2022-06-27 07:46:24
284,Main,3,0,9,Letter designer,True,,u_AD,u_AB,True,False,True,Sure same,1,3.141592653589793,350.0,4722.0,8.459987717645458,2022-06-27 07:46:24
285,Main,3,0,10,Letter designer,True,,d_AD,d_AB,True,False,True,Sure same,1,3.141592653589793,275.0,3962.0,8.284504227258497,2022-06-27 07:46:24
286,Main,3,0,11,Letter designer,True,,u_BC,u_AD,True,True,False,Sure different,1,3.141592653589793,200.0,4410.0,8.391629968440892,2022-06-27 07:46:24
287,Main,3,0,12,Letter designer,True,,u_AA,u_AA,False,True,True,Probably same,1,3.141592653589793,200.0,7381.0,8.906664409770052,2022-06-27 07:46:24
288,Main,3,0,13,Letter designer,True,,i_AD,i_BC,True,True,False,Sure different,1,3.141592653589793,275.0,3786.0,8.239065331769268,2022-06-27 07:46:24
289,Main,3,0,14,Letter designer,True,,i_AB,i_AD,True,False,True,Sure same,1,3.141592653589793,350.0,4975.0,8.512180649592693,2022-06-27 07:46:24
290,Main,3,0,15,Letter designer,True,,u_AD,u_AD,True,True,True,Sure same,1,3.141592653589793,425.0,3135.0,8.050384453067021,2022-06-27 07:46:24
291,Main,3,0,16,Letter designer,True,,u_AA,u_DD,False,True,False,Sure different,1,3.141592653589793,500.0,4107.0,8.320448113956559,2022-06-27 07:46:24
292,Main,3,0,17,Letter designer,True,,d_AD,d_AD,True,True,True,Sure different,0,0.0,575.0,3260.0,8.089482474360754,2022-06-27 07:46:24
293,Main,3,0,18,Letter designer,True,,i_AA,i_AA,False,True,True,Sure same,1,3.141592653589793,650.0,4803.0,8.476996001664824,2022-06-27 07:46:24
294,Main,3,1,1,Letter designer,True,,b_AD,b_BC,True,True,False,Sure different,1,3.141592653589793,188.9,15972.0,9.678592468183112,2022-06-27 07:46:24
295,Main,3,1,2,Letter designer,True,,p_AB,p_AD,True,False,True,Sure same,1,3.141592653589793,188.9,4367.0,8.381831553485561,2022-06-27 07:46:24
296,Main,3,1,3,Letter designer,True,,n_AD,n_BC,True,True,False,Sure different,1,3.141592653589793,188.9,3507.0,8.162516250140179,2022-06-27 07:46:24
297,Main,3,1,4,Letter designer,True,,t_AD,t_BC,True,True,False,Sure same,0,0.0,188.9,3564.0,8.1786387885907,2022-06-27 07:46:24
298,Main,3,1,5,Letter designer,True,,b_BD,b_AD,True,False,False,Sure different,1,3.141592653589793,188.9,3624.0,8.19533366716287,2022-06-27 07:46:24
299,Main,3,1,6,Letter designer,True,,c_AA,c_DD,False,True,False,Sure different,1,3.141592653589793,188.9,3294.0,8.099857910737585,2022-06-27 07:46:24
300,Main,3,1,7,Letter designer,True,,p_AA,p_DD,False,True,False,Sure different,1,3.141592653589793,188.9,2626.0,7.873217054862741,2022-06-27 07:46:24
301,Main,3,1,8,Letter designer,True,,r_BC,r_AD,True,True,False,Sure different,1,3.141592653589793,188.9,2883.0,7.9665866976384025,2022-06-27 07:46:24
302,Main,3,1,9,Letter designer,True,,n_AA,n_AA,False,True,True,Probably same,1,3.141592653589793,188.9,3854.0,8.256866848974312,2022-06-27 07:46:24
303,Main,3,1,10,Letter designer,True,,n_DD,n_AA,False,True,False,Sure different,1,3.141592653589793,188.9,2961.0,7.993282328101591,2022-06-27 07:46:24
304,Main,3,1,11,Letter designer,True,,j_AD,j_AD,True,True,True,Probably same,1,3.141592653589793,188.9,5411.0,8.596189197642735,2022-06-27 07:46:24
305,Main,3,1,12,Letter designer,True,,t_AD,t_AB,True,False,True,Sure same,1,3.141592653589793,188.9,3578.0,8.182559264068665,2022-06-27 07:46:24
306,Main,3,1,13,Letter designer,True,,z_BD,z_AD,True,False,False,Sure different,1,3.141592653589793,188.9,3457.0,8.148156439921625,2022-06-27 07:46:24
307,Main,3,1,14,Letter designer,True,,h_AA,h_DD,False,True,False,Sure different,1,3.141592653589793,188.9,3506.0,8.16223106548118,2022-06-27 07:46:24
308,Main,3,1,15,Letter designer,True,,a_AD,a_AB,True,False,True,Sure same,1,3.141592653589793,188.9,3206.0,8.072779333169498,2022-06-27 07:46:24
309,Main,3,1,16,Letter designer,True,,h_BC,h_AD,True,True,False,Sure different,1,3.141592653589793,188.9,5230.0,8.56216655705897,2022-06-27 07:46:24
310,Main,3,1,17,Letter designer,True,,c_AA,c_AA,False,True,True,Probably same,1,3.141592653589793,188.9,4074.0,8.31238059678675,2022-06-27 07:46:24
311,Main,3,1,18,Letter designer,True,,z_AA,z_DD,False,True,False,Sure different,1,3.141592653589793,188.9,2937.0,7.98514393119862,2022-06-27 07:46:24
312,Main,3,1,19,Letter designer,True,,h_AA,h_AA,False,True,True,Sure same,1,3.141592653589793,188.9,3149.0,8.054840221101024,2022-06-27 07:46:24
313,Main,3,1,20,Letter designer,True,,a_BC,a_AD,True,True,False,Probably same,0,0.0,188.9,4993.0,8.51579221050061,2022-06-27 07:46:24
314,Main,3,1,21,Letter designer,True,,n_AD,n_AD,True,True,True,Sure same,1,3.141592653589793,188.9,2960.0,7.992944547318106,2022-06-27 07:46:24
315,Main,3,1,22,Letter designer,True,,r_AD,r_AB,True,False,True,Sure same,1,3.141592653589793,188.9,2674.0,7.891330757661889,2022-06-27 07:46:24
316,Main,3,1,23,Letter designer,True,,z_AD,z_AD,True,True,True,Sure same,1,3.141592653589793,188.9,5454.0,8.604104563405533,2022-06-27 07:46:24
317,Main,3,1,24,Letter designer,True,,n_AB,n_AD,True,False,True,Probably same,1,3.141592653589793,188.9,3118.0,8.044947049617722,2022-06-27 07:46:24
318,Main,3,1,25,Letter designer,True,,z_BC,z_AD,True,True,False,Sure different,1,3.141592653589793,188.9,3109.0,8.042056410058754,2022-06-27 07:46:24
319,Main,3,1,26,Letter designer,True,,b_AB,b_AD,True,False,True,Sure same,1,3.141592653589793,188.9,3544.0,8.173011311724972,2022-06-27 07:46:24
320,Main,3,1,27,Letter designer,True,,j_AB,j_AD,True,False,True,Sure same,1,3.141592653589793,188.9,4440.0,8.39840965542627,2022-06-27 07:46:24
321,Main,3,1,28,Letter designer,True,,h_BD,h_AD,True,False,False,Sure different,1,3.141592653589793,188.9,3054.0,8.024207485778577,2022-06-27 07:46:24
322,Main,3,1,29,Letter designer,True,,r_AD,r_AD,True,True,True,Sure same,1,3.141592653589793,188.9,3023.0,8.014004994779459,2022-06-27 07:46:24
323,Main,3,1,30,Letter designer,True,,q_AD,q_BD,True,False,False,Probably same,0,0.0,188.9,3172.0,8.06211758275474,2022-06-27 07:46:24
324,Main,3,1,31,Letter designer,True,,q_AD,q_AB,True,False,True,Sure same,1,3.141592653589793,188.9,2779.0,7.929846429742503,2022-06-27 07:46:24
325,Main,3,1,32,Letter designer,True,,b_AA,b_AA,False,True,True,Sure same,1,3.141592653589793,188.9,2791.0,7.934155233536322,2022-06-27 07:46:24
326,Main,3,1,33,Letter designer,True,,z_AD,z_AB,True,False,True,Sure same,1,3.141592653589793,188.9,2549.0,7.8434564043761155,2022-06-27 07:46:24
327,Main,3,1,34,Letter designer,True,,j_BD,j_AD,True,False,False,Sure different,1,3.141592653589793,188.9,2911.0,7.976251943745623,2022-06-27 07:46:24
328,Main,3,1,35,Letter designer,True,,n_AD,n_BD,True,False,False,Sure different,1,3.141592653589793,188.9,2683.0,7.894690850425624,2022-06-27 07:46:24
329,Main,3,1,36,Letter designer,True,,r_AD,r_BD,True,False,False,Sure different,1,3.141592653589793,188.9,2991.0,8.003363058629947,2022-06-27 07:46:24
330,Main,3,1,37,Letter designer,True,,a_AA,a_AA,False,True,True,Sure same,1,3.141592653589793,188.9,3363.0,8.12058871174027,2022-06-27 07:46:24
331,Main,3,1,38,Letter designer,True,,e_BD,e_AD,True,False,False,Sure same,0,0.0,188.9,3347.0,8.115819701211327,2022-06-27 07:46:24
332,Main,3,1,39,Letter designer,True,,p_AD,p_BD,True,False,False,Sure different,1,3.141592653589793,188.9,2912.0,7.976595409316577,2022-06-27 07:46:24
333,Main,3,1,40,Letter designer,True,,a_BD,a_AD,True,False,False,Sure same,0,0.0,188.9,3039.0,8.019283792916793,2022-06-27 07:46:24
334,Main,3,1,41,Letter designer,True,,z_AA,z_AA,False,True,True,Sure same,1,3.141592653589793,188.9,2896.0,7.971085753505607,2022-06-27 07:46:24
335,Main,3,1,42,Letter designer,True,,c_AD,c_AB,True,False,True,Probably same,1,3.141592653589793,188.9,4185.0,8.339261982923576,2022-06-27 07:46:24
336,Main,3,1,43,Letter designer,True,,h_AD,h_AD,True,True,True,Sure same,1,3.141592653589793,188.9,3302.0,8.102283624480073,2022-06-27 07:46:24
337,Main,3,1,44,Letter designer,True,,q_AA,q_DD,False,True,False,Sure different,1,3.141592653589793,188.9,3013.0,8.0106915391303,2022-06-27 07:46:24
338,Main,3,1,45,Letter designer,True,,a_AA,a_DD,False,True,False,Sure different,1,3.141592653589793,188.9,2762.0,7.923710333969238,2022-06-27 07:46:24
339,Main,3,1,46,Letter designer,True,,t_AD,t_BD,True,False,False,Sure same,0,0.0,188.9,6007.0,8.700680734850161,2022-06-27 07:46:24
340,Main,3,1,47,Letter designer,True,,q_AA,q_AA,False,True,True,Probably same,1,3.141592653589793,188.9,2990.0,8.003028666384733,2022-06-27 07:46:24
341,Main,3,1,48,Letter designer,True,,t_AD,t_AD,True,True,True,Sure same,1,3.141592653589793,188.9,5752.0,8.657302899400882,2022-06-27 07:46:24
342,Main,3,1,49,Letter designer,True,,e_AA,e_DD,False,True,False,Sure different,1,3.141592653589793,188.9,4186.0,8.339500903005945,2022-06-27 07:46:24
343,Main,3,1,50,Letter designer,True,,b_AD,b_AD,True,True,True,Sure same,1,3.141592653589793,188.9,2929.0,7.982416346827733,2022-06-27 07:46:24
344,Main,3,1,51,Letter designer,True,,j_AD,j_BC,True,True,False,Sure different,1,3.141592653589793,188.9,3300.0,8.101677747454572,2022-06-27 07:46:24
345,Main,3,1,52,Letter designer,True,,r_AA,r_AA,False,True,True,Probably same,1,3.141592653589793,188.9,3412.0,8.13505390861157,2022-06-27 07:46:24
346,Main,3,1,53,Letter designer,True,,h_AD,h_AB,True,False,True,Probably same,1,3.141592653589793,188.9,3119.0,8.045267716607803,2022-06-27 07:46:24
347,Main,3,1,54,Letter designer,True,,a_AD,a_AD,True,True,True,Sure same,1,3.141592653589793,188.9,3030.0,8.016317898503415,2022-06-27 07:46:24
348,Main,3,1,55,Letter designer,True,,t_AA,t_AA,False,True,True,Sure same,1,3.141592653589793,188.9,3159.0,8.058010800802085,2022-06-27 07:46:24
349,Main,3,1,56,Letter designer,True,,c_AD,c_AD,True,True,True,Probably same,1,3.141592653589793,188.9,2911.0,7.976251943745623,2022-06-27 07:46:24
350,Main,3,1,57,Letter designer,True,,j_AA,j_DD,False,True,False,Sure different,1,3.141592653589793,188.9,3403.0,8.132412674500905,2022-06-27 07:46:24
351,Main,3,1,58,Letter designer,True,,t_AA,t_DD,False,True,False,Sure different,1,3.141592653589793,188.9,2722.0,7.909122183211411,2022-06-27 07:46:24
352,Main,3,1,59,Letter designer,True,,r_AA,r_DD,False,True,False,Sure different,1,3.141592653589793,188.9,2525.0,7.83399634170946,2022-06-27 07:46:24
353,Main,3,1,60,Letter designer,True,,q_BC,q_AD,True,True,False,Probably different,1,3.141592653589793,188.9,2902.0,7.973155433444133,2022-06-27 07:46:24
354,Main,3,1,61,Letter designer,True,,p_AA,p_AA,False,True,True,Probably different,0,0.0,188.9,5145.0,8.545780648268149,2022-06-27 07:46:24
355,Main,3,1,62,Letter designer,True,,e_BC,e_AD,True,True,False,Probably same,0,0.0,188.9,4368.0,8.38206051742474,2022-06-27 07:46:24
356,Main,3,1,63,Letter designer,True,,e_AA,e_AA,False,True,True,Sure same,1,3.141592653589793,188.9,6440.0,8.770283819098399,2022-06-27 07:46:24
357,Main,3,1,64,Letter designer,True,,j_AA,j_AA,False,True,True,Sure same,1,3.141592653589793,188.9,2992.0,8.003697339094368,2022-06-27 07:46:24
358,Main,3,1,65,Letter designer,True,,p_BC,p_AD,True,True,False,Sure different,1,3.141592653589793,188.9,2897.0,7.9714309977693505,2022-06-27 07:46:24
359,Main,3,1,66,Letter designer,True,,c_AD,c_BD,True,False,False,Probably different,1,3.141592653589793,188.9,3442.0,8.143807976771484,2022-06-27 07:46:24
360,Main,3,1,67,Letter designer,True,,p_AD,p_AD,True,True,True,Probably same,1,3.141592653589793,188.9,3734.0,8.225235324101668,2022-06-27 07:46:24
361,Main,3,1,68,Letter designer,True,,q_AD,q_AD,True,True,True,Probably same,1,3.141592653589793,188.9,3047.0,8.021912778985708,2022-06-27 07:46:24
362,Main,3,1,69,Letter designer,True,,e_AB,e_AD,True,False,True,Sure same,1,3.141592653589793,188.9,2725.0,7.9102237070973445,2022-06-27 07:46:24
363,Main,3,1,70,Letter designer,True,,e_AD,e_AD,True,True,True,Sure same,1,3.141592653589793,188.9,3662.0,8.205764725234456,2022-06-27 07:46:24
364,Main,3,1,71,Letter designer,True,,b_DD,b_AA,False,True,False,Probably same,0,0.0,188.9,3010.0,8.009695357742922,2022-06-27 07:46:24
365,Main,3,1,72,Letter designer,True,,c_BC,c_AD,True,True,False,Sure different,1,3.141592653589793,188.9,3600.0,8.1886891244442,2022-06-27 07:46:24
366,Main,3,0,19,Letter designer,True,,u_BD,u_AD,True,False,False,Sure different,1,3.141592653589793,725.0,4328.0,8.372860820526318,2022-06-27 07:46:24
367,Main,3,0,20,Letter designer,True,,i_AD,i_AD,True,True,True,Sure same,1,3.141592653589793,800.0,4178.0,8.33758794211651,2022-06-27 07:46:24
368,Main,4,0,1,Letter designer,True,,d_BC,d_AD,True,True,False,Probably different,1,3.141592653589793,800.0,9033.0,9.108639817149843,2022-06-26 15:38:29
369,Main,4,0,2,Letter designer,True,,u_DD,u_AA,False,True,False,Sure different,1,3.141592653589793,800.0,4680.0,8.451053388911692,2022-06-26 15:38:29
370,Main,4,0,3,Letter designer,True,,d_AA,d_DD,False,True,False,Sure different,1,3.141592653589793,800.0,3719.0,8.22121009392507,2022-06-26 15:38:29
371,Main,4,0,4,Letter designer,True,,d_AA,d_AA,False,True,True,Probably same,1,3.141592653589793,725.0,6447.0,8.77137018531062,2022-06-26 15:38:29
372,Main,4,0,5,Letter designer,True,,i_AA,i_DD,False,True,False,Sure different,1,3.141592653589793,650.0,3483.0,8.155649270366002,2022-06-26 15:38:29
373,Main,4,0,6,Letter designer,True,,d_BC,d_AD,True,True,False,Sure different,1,3.141592653589793,575.0,2982.0,8.000349495324684,2022-06-26 15:38:29
374,Main,4,0,7,Letter designer,True,,i_BD,i_AD,True,False,False,Sure different,1,3.141592653589793,500.0,2871.0,7.962415680121064,2022-06-26 15:38:29
375,Main,4,0,8,Letter designer,True,,d_AD,d_BD,True,False,False,Sure different,1,3.141592653589793,425.0,2898.0,7.971776122880628,2022-06-26 15:38:29
376,Main,4,0,9,Letter designer,True,,u_AB,u_AD,True,False,True,Probably same,1,3.141592653589793,350.0,5678.0,8.644354337032917,2022-06-26 15:38:29
377,Main,4,0,10,Letter designer,True,,d_AD,d_AB,True,False,True,Sure same,1,3.141592653589793,275.0,3188.0,8.067149039910106,2022-06-26 15:38:29
378,Main,4,0,11,Letter designer,True,,u_BC,u_AD,True,True,False,Probably different,1,3.141592653589793,200.0,3397.0,8.130647968160584,2022-06-26 15:38:29
379,Main,4,0,12,Letter designer,True,,u_AA,u_AA,False,True,True,Sure same,1,3.141592653589793,200.0,3619.0,8.193953023563742,2022-06-26 15:38:29
380,Main,4,0,13,Letter designer,True,,i_BC,i_AD,True,True,False,Sure different,1,3.141592653589793,275.0,5963.0,8.693328989123106,2022-06-26 15:38:29
381,Main,4,0,14,Letter designer,True,,i_AB,i_AD,True,False,True,Probably different,0,0.0,350.0,5416.0,8.59711281459211,2022-06-26 15:38:29
382,Main,4,0,15,Letter designer,True,,u_AD,u_AD,True,True,True,Probably same,1,3.141592653589793,425.0,5399.0,8.593969030218288,2022-06-26 15:38:29
383,Main,4,0,16,Letter designer,True,,u_AA,u_DD,False,True,False,Sure different,1,3.141592653589793,500.0,3186.0,8.066521490469993,2022-06-26 15:38:29
384,Main,4,0,17,Letter designer,True,,d_AD,d_AD,True,True,True,Probably different,0,0.0,575.0,5231.0,8.562357743370612,2022-06-26 15:38:29
385,Main,4,0,18,Letter designer,True,,i_AA,i_AA,False,True,True,Sure same,1,3.141592653589793,650.0,7018.0,8.85623355614316,2022-06-26 15:38:29
386,Main,4,1,1,Letter designer,True,,e_AB,e_AD,True,False,True,Probably same,1,3.141592653589793,227.8,13908.0,9.540219493127752,2022-06-26 15:38:29
387,Main,4,1,2,Letter designer,True,,t_AA,t_AA,False,True,True,Probably same,1,3.141592653589793,227.8,5917.0,8.685584842676693,2022-06-26 15:38:29
388,Main,4,1,3,Letter designer,True,,c_BC,c_AD,True,True,False,Probably same,0,0.0,227.8,5813.0,8.66785206770135,2022-06-26 15:38:29
389,Main,4,1,4,Letter designer,True,,z_DD,z_AA,False,True,False,Sure different,1,3.141592653589793,227.8,2533.0,7.837159650001675,2022-06-26 15:38:29
390,Main,4,1,5,Letter designer,True,,c_BD,c_AD,True,False,False,Probably same,0,0.0,227.8,6399.0,8.76389700713946,2022-06-26 15:38:29
391,Main,4,1,6,Letter designer,True,,z_BC,z_AD,True,True,False,Sure different,1,3.141592653589793,227.8,2438.0,7.798933310041217,2022-06-26 15:38:29
392,Main,4,1,7,Letter designer,True,,q_DD,q_AA,False,True,False,Sure different,1,3.141592653589793,227.8,4698.0,8.454892165218858,2022-06-26 15:38:29
393,Main,4,1,8,Letter designer,True,,a_AD,a_AD,True,True,True,Sure same,1,3.141592653589793,227.8,3213.0,8.074960359115858,2022-06-26 15:38:29
394,Main,4,1,9,Letter designer,True,,j_AD,j_AD,True,True,True,Sure same,1,3.141592653589793,227.8,2822.0,7.945201132412759,2022-06-26 15:38:29
395,Main,4,1,10,Letter designer,True,,z_AB,z_AD,True,False,True,Sure same,1,3.141592653589793,227.8,2746.0,7.917900586327916,2022-06-26 15:38:29
396,Main,4,1,11,Letter designer,True,,r_AD,r_AD,True,True,True,Probably same,1,3.141592653589793,227.8,3948.0,8.280964400553373,2022-06-26 15:38:29
397,Main,4,1,12,Letter designer,True,,n_BC,n_AD,True,True,False,Probably different,1,3.141592653589793,227.8,3887.0,8.265392930852224,2022-06-26 15:38:29
398,Main,4,1,13,Letter designer,True,,r_BD,r_AD,True,False,False,Probably same,0,0.0,227.8,3050.0,8.022896869601457,2022-06-26 15:38:29
399,Main,4,1,14,Letter designer,True,,c_AD,c_AB,True,False,True,Sure same,1,3.141592653589793,227.8,2581.0,7.855932199718614,2022-06-26 15:38:29
400,Main,4,1,15,Letter designer,True,,a_AA,a_AA,False,True,True,Sure same,1,3.141592653589793,227.8,5096.0,8.536211197252,2022-06-26 15:38:29
401,Main,4,1,16,Letter designer,True,,j_AB,j_AD,True,False,True,Probably same,1,3.141592653589793,227.8,4184.0,8.339023005744759,2022-06-26 15:38:29
402,Main,4,1,17,Letter designer,True,,e_BD,e_AD,True,False,False,Sure same,0,0.0,227.8,3438.0,8.142645185942795,2022-06-26 15:38:29
403,Main,4,1,18,Letter designer,True,,b_BC,b_AD,True,True,False,Sure different,1,3.141592653589793,227.8,2795.0,7.9355873855892,2022-06-26 15:38:29
404,Main,4,1,19,Letter designer,True,,b_AA,b_AA,False,True,True,Probably different,0,0.0,227.8,3218.0,8.076515327552329,2022-06-26 15:38:29
405,Main,4,1,20,Letter designer,True,,n_AA,n_AA,False,True,True,Probably same,1,3.141592653589793,227.8,3753.0,8.23031079913502,2022-06-26 15:38:29
406,Main,4,1,21,Letter designer,True,,h_AD,h_BD,True,False,False,Sure different,1,3.141592653589793,227.8,3079.0,8.0323601479245,2022-06-26 15:38:29
407,Main,4,1,22,Letter designer,True,,q_BD,q_AD,True,False,False,Probably same,0,0.0,227.8,6602.0,8.795127912413138,2022-06-26 15:38:29
408,Main,4,1,23,Letter designer,True,,e_AD,e_BC,True,True,False,Probably different,1,3.141592653589793,227.8,3350.0,8.116715624819111,2022-06-26 15:38:29
409,Main,4,1,24,Letter designer,True,,c_AD,c_AD,True,True,True,Probably different,0,0.0,227.8,3867.0,8.260234291607297,2022-06-26 15:38:29
410,Main,4,1,25,Letter designer,True,,n_AD,n_BD,True,False,False,Sure different,1,3.141592653589793,227.8,2595.0,7.861341795599989,2022-06-26 15:38:29
411,Main,4,1,26,Letter designer,True,,h_AA,h_AA,False,True,True,Probably different,0,0.0,227.8,4868.0,8.490438454107418,2022-06-26 15:38:29
412,Main,4,1,27,Letter designer,True,,e_AD,e_AD,True,True,True,Probably same,1,3.141592653589793,227.8,4953.0,8.507748732588238,2022-06-26 15:38:29
413,Main,4,1,28,Letter designer,True,,e_DD,e_AA,False,True,False,Sure different,1,3.141592653589793,227.8,3129.0,8.048468743668883,2022-06-26 15:38:29
414,Main,4,1,29,Letter designer,True,,h_AD,h_BC,True,True,False,Sure different,1,3.141592653589793,227.8,2704.0,7.902487437162855,2022-06-26 15:38:29
415,Main,4,1,30,Letter designer,True,,p_AA,p_AA,False,True,True,Probably same,1,3.141592653589793,227.8,4131.0,8.326274787396764,2022-06-26 15:38:29
416,Main,4,1,31,Letter designer,True,,r_AD,r_AB,True,False,True,Probably same,1,3.141592653589793,227.8,5879.0,8.679141958402255,2022-06-26 15:38:29
417,Main,4,1,32,Letter designer,True,,p_AD,p_AD,True,True,True,Sure same,1,3.141592653589793,227.8,3421.0,8.137688184977605,2022-06-26 15:38:29
418,Main,4,1,33,Letter designer,True,,p_DD,p_AA,False,True,False,Sure different,1,3.141592653589793,227.8,2581.0,7.855932199718614,2022-06-26 15:38:29
419,Main,4,1,34,Letter designer,True,,t_AD,t_AD,True,True,True,Sure different,0,0.0,227.8,3215.0,8.07558263667172,2022-06-26 15:38:29
420,Main,4,1,35,Letter designer,True,,b_BD,b_AD,True,False,False,Sure different,1,3.141592653589793,227.8,2334.0,7.755338812846501,2022-06-26 15:38:29
421,Main,4,1,36,Letter designer,True,,c_AA,c_AA,False,True,True,Probably different,0,0.0,227.8,2802.0,7.938088726896952,2022-06-26 15:38:29
422,Main,4,1,37,Letter designer,True,,z_AD,z_BD,True,False,False,Sure different,1,3.141592653589793,227.8,2516.0,7.830425617820331,2022-06-26 15:38:29
423,Main,4,1,38,Letter designer,True,,h_AD,h_AD,True,True,True,Probably different,0,0.0,227.8,2984.0,8.001019961323651,2022-06-26 15:38:29
424,Main,4,1,39,Letter designer,True,,n_AD,n_AD,True,True,True,Probably same,1,3.141592653589793,227.8,2882.0,7.966239776559467,2022-06-26 15:38:29
425,Main,4,1,40,Letter designer,True,,t_AD,t_BC,True,True,False,Sure different,1,3.141592653589793,227.8,3046.0,8.021584533455107,2022-06-26 15:38:29
426,Main,4,1,41,Letter designer,True,,b_AB,b_AD,True,False,True,Probably different,0,0.0,227.8,4071.0,8.31164394850298,2022-06-26 15:38:29
427,Main,4,1,42,Letter designer,True,,b_AD,b_AD,True,True,True,Probably same,1,3.141592653589793,227.8,3799.0,8.242493153187626,2022-06-26 15:38:29
428,Main,4,1,43,Letter designer,True,,t_BD,t_AD,True,False,False,Sure same,0,0.0,227.8,3914.0,8.272315147956022,2022-06-26 15:38:29
429,Main,4,1,44,Letter designer,True,,e_AA,e_AA,False,True,True,Sure same,1,3.141592653589793,227.8,2819.0,7.9441374911141125,2022-06-26 15:38:29
430,Main,4,1,45,Letter designer,True,,b_AA,b_DD,False,True,False,Sure different,1,3.141592653589793,227.8,2944.0,7.987524479848767,2022-06-26 15:38:29
431,Main,4,1,46,Letter designer,True,,a_DD,a_AA,False,True,False,Sure different,1,3.141592653589793,227.8,2355.0,7.764296006450518,2022-06-26 15:38:29
432,Main,4,1,47,Letter designer,True,,q_BC,q_AD,True,True,False,Probably different,1,3.141592653589793,227.8,2928.0,7.982074875081202,2022-06-26 15:38:29
433,Main,4,1,48,Letter designer,True,,n_AB,n_AD,True,False,True,Sure same,1,3.141592653589793,227.8,3454.0,8.147288258706624,2022-06-26 15:38:29
434,Main,4,1,49,Letter designer,True,,q_AD,q_AD,True,True,True,Sure same,1,3.141592653589793,227.8,2967.0,7.995306620290822,2022-06-26 15:38:29
435,Main,4,1,50,Letter designer,True,,a_AB,a_AD,True,False,True,Sure same,1,3.141592653589793,227.8,2729.0,7.911690520708339,2022-06-26 15:38:29
436,Main,4,1,51,Letter designer,True,,j_AD,j_BD,True,False,False,Sure different,1,3.141592653589793,227.8,2954.0,7.9909154630913255,2022-06-26 15:38:29
437,Main,4,1,52,Letter designer,True,,q_AB,q_AD,True,False,True,Probably different,0,0.0,227.8,2749.0,7.918992488165245,2022-06-26 15:38:29
438,Main,4,1,53,Letter designer,True,,h_AA,h_DD,False,True,False,Sure different,1,3.141592653589793,227.8,2579.0,7.8551570058813445,2022-06-26 15:38:29
439,Main,4,1,54,Letter designer,True,,j_BC,j_AD,True,True,False,Sure different,1,3.141592653589793,227.8,2588.0,7.858640655620791,2022-06-26 15:38:29
440,Main,4,1,55,Letter designer,True,,r_DD,r_AA,False,True,False,Sure different,1,3.141592653589793,227.8,2412.0,7.788211557847076,2022-06-26 15:38:29
441,Main,4,1,56,Letter designer,True,,t_AA,t_DD,False,True,False,Sure different,1,3.141592653589793,227.8,2371.0,7.771067086065406,2022-06-26 15:38:29
442,Main,4,1,57,Letter designer,True,,z_AA,z_AA,False,True,True,Sure same,1,3.141592653589793,227.8,3150.0,8.055157731819678,2022-06-26 15:38:29
443,Main,4,1,58,Letter designer,True,,j_AA,j_DD,False,True,False,Sure different,1,3.141592653589793,227.8,2882.0,7.966239776559467,2022-06-26 15:38:29
444,Main,4,1,59,Letter designer,True,,r_AD,r_BC,True,True,False,Probably same,0,0.0,227.8,3117.0,8.044626279767337,2022-06-26 15:38:29
445,Main,4,1,60,Letter designer,True,,t_AD,t_AB,True,False,True,Probably different,0,0.0,227.8,3362.0,8.120291313968561,2022-06-26 15:38:29
446,Main,4,1,61,Letter designer,True,,p_BC,p_AD,True,True,False,Sure different,1,3.141592653589793,227.8,2282.0,7.732807530422021,2022-06-26 15:38:29
447,Main,4,1,62,Letter designer,True,,j_AA,j_AA,False,True,True,Sure same,1,3.141592653589793,227.8,3338.0,8.11312710422178,2022-06-26 15:38:29
448,Main,4,1,63,Letter designer,True,,c_DD,c_AA,False,True,False,Sure different,1,3.141592653589793,227.8,2800.0,7.937374696163295,2022-06-26 15:38:29
449,Main,4,1,64,Letter designer,True,,q_AA,q_AA,False,True,True,Sure same,1,3.141592653589793,227.8,4011.0,8.296795865770052,2022-06-26 15:38:29
450,Main,4,1,65,Letter designer,True,,n_DD,n_AA,False,True,False,Sure different,1,3.141592653589793,227.8,2506.0,7.826443135456014,2022-06-26 15:38:29
451,Main,4,1,66,Letter designer,True,,z_AD,z_AD,True,True,True,Probably same,1,3.141592653589793,227.8,6082.0,8.71308886823731,2022-06-26 15:38:29
452,Main,4,1,67,Letter designer,True,,r_AA,r_AA,False,True,True,Sure same,1,3.141592653589793,227.8,3050.0,8.022896869601457,2022-06-26 15:38:29
453,Main,4,1,68,Letter designer,True,,h_AB,h_AD,True,False,True,Probably different,0,0.0,227.8,3144.0,8.053251153549096,2022-06-26 15:38:29
454,Main,4,1,69,Letter designer,True,,a_BC,a_AD,True,True,False,Probably same,0,0.0,227.8,3250.0,8.086410275323782,2022-06-26 15:38:29
455,Main,4,1,70,Letter designer,True,,p_AD,p_AB,True,False,True,Probably same,1,3.141592653589793,227.8,4138.0,8.327967858305488,2022-06-26 15:38:29
456,Main,4,1,71,Letter designer,True,,a_AD,a_BD,True,False,False,Sure same,0,0.0,227.8,2563.0,7.848933726364071,2022-06-26 15:38:29
457,Main,4,1,72,Letter designer,True,,p_BD,p_AD,True,False,False,Sure different,1,3.141592653589793,227.8,2915.0,7.977625098784593,2022-06-26 15:38:29
458,Main,4,0,19,Letter designer,True,,u_AD,u_BD,True,False,False,Sure different,1,3.141592653589793,725.0,3662.0,8.205764725234456,2022-06-26 15:38:29
459,Main,4,0,20,Letter designer,True,,i_AD,i_AD,True,True,True,Sure same,1,3.141592653589793,800.0,6337.0,8.754160749323518,2022-06-26 15:38:29
460,Main,5,0,1,Graphic designer,True,,d_BC,d_AD,True,True,False,Probably different,1,3.141592653589793,800.0,6912.0,8.841014310483892,2022-06-23 16:43:59
461,Main,5,0,2,Graphic designer,True,,u_AA,u_DD,False,True,False,Sure different,1,3.141592653589793,800.0,4023.0,8.299783171949787,2022-06-23 16:43:59
462,Main,5,0,3,Graphic designer,True,,d_DD,d_AA,False,True,False,Sure different,1,3.141592653589793,800.0,3340.0,8.113726085970747,2022-06-23 16:43:59
463,Main,5,0,4,Graphic designer,True,,d_AA,d_AA,False,True,True,Sure same,1,3.141592653589793,725.0,3911.0,8.271548374755515,2022-06-23 16:43:59
464,Main,5,0,5,Graphic designer,True,,i_DD,i_AA,False,True,False,Sure different,1,3.141592653589793,650.0,3405.0,8.133000218583613,2022-06-23 16:43:59
465,Main,5,0,6,Graphic designer,True,,d_BC,d_AD,True,True,False,Sure different,1,3.141592653589793,575.0,3203.0,8.071843149609158,2022-06-23 16:43:59
466,Main,5,0,7,Graphic designer,True,,i_AD,i_BD,True,False,False,Sure different,1,3.141592653589793,500.0,2989.0,8.002694162283937,2022-06-23 16:43:59
467,Main,5,0,8,Graphic designer,True,,d_BD,d_AD,True,False,False,Probably different,1,3.141592653589793,425.0,3631.0,8.197263371414335,2022-06-23 16:43:59
468,Main,5,0,9,Graphic designer,True,,u_AB,u_AD,True,False,True,Sure same,1,3.141592653589793,350.0,3266.0,8.09132127353041,2022-06-23 16:43:59
469,Main,5,0,10,Graphic designer,True,,d_AD,d_AB,True,False,True,Sure same,1,3.141592653589793,275.0,2644.0,7.880048200971577,2022-06-23 16:43:59
470,Main,5,0,11,Graphic designer,True,,u_BC,u_AD,True,True,False,Sure different,1,3.141592653589793,200.0,4106.0,8.32020459757888,2022-06-23 16:43:59
471,Main,5,0,12,Graphic designer,True,,u_AA,u_AA,False,True,True,Sure same,1,3.141592653589793,200.0,3869.0,8.260751354700513,2022-06-23 16:43:59
472,Main,5,0,13,Graphic designer,True,,i_BC,i_AD,True,True,False,Sure different,1,3.141592653589793,275.0,3221.0,8.0774471493312,2022-06-23 16:43:59
473,Main,5,0,14,Graphic designer,True,,i_AD,i_AB,True,False,True,Sure same,1,3.141592653589793,350.0,3144.0,8.053251153549096,2022-06-23 16:43:59
474,Main,5,0,15,Graphic designer,True,,u_AD,u_AD,True,True,True,Sure same,1,3.141592653589793,425.0,2690.0,7.897296472595885,2022-06-23 16:43:59
475,Main,5,0,16,Graphic designer,True,,u_DD,u_AA,False,True,False,Sure different,1,3.141592653589793,500.0,3243.0,8.084254106307318,2022-06-23 16:43:59
476,Main,5,0,17,Graphic designer,True,,d_AD,d_AD,True,True,True,Sure same,1,3.141592653589793,575.0,3280.0,8.09559870137819,2022-06-23 16:43:59
477,Main,5,0,18,Graphic designer,True,,i_AA,i_AA,False,True,True,Sure same,1,3.141592653589793,650.0,4311.0,8.368925174747135,2022-06-23 16:43:59
478,Main,5,1,1,Graphic designer,True,,b_BC,b_AD,True,True,False,Probably same,0,0.0,150.0,6699.0,8.809713540508268,2022-06-23 16:43:59
479,Main,5,1,2,Graphic designer,True,,r_AD,r_AD,True,True,True,Sure same,1,3.141592653589793,150.0,2871.0,7.962415680121064,2022-06-23 16:43:59
480,Main,5,1,3,Graphic designer,True,,n_AD,n_AB,True,False,True,Sure same,1,3.141592653589793,150.0,2608.0,7.866338923046544,2022-06-23 16:43:59
481,Main,5,1,4,Graphic designer,True,,n_BD,n_AD,True,False,False,Sure same,0,0.0,150.0,2511.0,7.828436359157585,2022-06-23 16:43:59
482,Main,5,1,5,Graphic designer,True,,q_AD,q_AD,True,True,True,Sure same,1,3.141592653589793,150.0,2632.0,7.875499292445208,2022-06-23 16:43:59
483,Main,5,1,6,Graphic designer,True,,q_AB,q_AD,True,False,True,Sure same,1,3.141592653589793,150.0,2405.0,7.785305182539862,2022-06-23 16:43:59
484,Main,5,1,7,Graphic designer,True,,r_AD,r_BC,True,True,False,Sure same,0,0.0,150.0,2404.0,7.784889295655098,2022-06-23 16:43:59
485,Main,5,1,8,Graphic designer,True,,c_AD,c_BC,True,True,False,Sure same,0,0.0,150.0,2466.0,7.81035268372429,2022-06-23 16:43:59
486,Main,5,1,9,Graphic designer,True,,b_BD,b_AD,True,False,False,Sure different,1,3.141592653589793,150.0,2739.0,7.915348169263078,2022-06-23 16:43:59
487,Main,5,1,10,Graphic designer,True,,p_AB,p_AD,True,False,True,Sure same,1,3.141592653589793,150.0,2793.0,7.934871565945177,2022-06-23 16:43:59
488,Main,5,1,11,Graphic designer,True,,n_AA,n_AA,False,True,True,Sure same,1,3.141592653589793,150.0,2377.0,7.773594467360194,2022-06-23 16:43:59
489,Main,5,1,12,Graphic designer,True,,j_AD,j_AB,True,False,True,Sure same,1,3.141592653589793,150.0,2597.0,7.862112211662748,2022-06-23 16:43:59
490,Main,5,1,13,Graphic designer,True,,q_BC,q_AD,True,True,False,Sure same,0,0.0,150.0,2483.0,7.817222785508166,2022-06-23 16:43:59
491,Main,5,1,14,Graphic designer,True,,p_AA,p_AA,False,True,True,Sure same,1,3.141592653589793,150.0,2572.0,7.85243908535751,2022-06-23 16:43:59
492,Main,5,1,15,Graphic designer,True,,e_AD,e_AB,True,False,True,Sure same,1,3.141592653589793,150.0,2369.0,7.7702232041587855,2022-06-23 16:43:59
493,Main,5,1,16,Graphic designer,True,,q_AD,q_BD,True,False,False,Sure same,0,0.0,150.0,2371.0,7.771067086065406,2022-06-23 16:43:59
494,Main,5,1,17,Graphic designer,True,,j_AA,j_DD,False,True,False,Sure different,1,3.141592653589793,150.0,2819.0,7.9441374911141125,2022-06-23 16:43:59
495,Main,5,1,18,Graphic designer,True,,q_AA,q_AA,False,True,True,Sure same,1,3.141592653589793,150.0,2609.0,7.866722285136729,2022-06-23 16:43:59
496,Main,5,1,19,Graphic designer,True,,h_AD,h_AB,True,False,True,Sure different,0,0.0,150.0,2451.0,7.804251383528112,2022-06-23 16:43:59
497,Main,5,1,20,Graphic designer,True,,c_AA,c_AA,False,True,True,Sure same,1,3.141592653589793,150.0,2558.0,7.846980982138788,2022-06-23 16:43:59
498,Main,5,1,21,Graphic designer,True,,c_AA,c_DD,False,True,False,Sure different,1,3.141592653589793,150.0,2508.0,7.827240901752812,2022-06-23 16:43:59
499,Main,5,1,22,Graphic designer,True,,e_BC,e_AD,True,True,False,Sure same,0,0.0,150.0,2473.0,7.813187267521416,2022-06-23 16:43:59
500,Main,5,1,23,Graphic designer,True,,z_AB,z_AD,True,False,True,Sure same,1,3.141592653589793,150.0,2237.0,7.71289096149013,2022-06-23 16:43:59
501,Main,5,1,24,Graphic designer,True,,h_DD,h_AA,False,True,False,Sure different,1,3.141592653589793,150.0,2499.0,7.823645930834952,2022-06-23 16:43:59
502,Main,5,1,25,Graphic designer,True,,t_AD,t_AB,True,False,True,Sure same,1,3.141592653589793,150.0,3038.0,8.018954683155718,2022-06-23 16:43:59
503,Main,5,1,26,Graphic designer,True,,p_AA,p_DD,False,True,False,Sure different,1,3.141592653589793,150.0,2410.0,7.787382026484701,2022-06-23 16:43:59
504,Main,5,1,27,Graphic designer,True,,a_AD,a_AB,True,False,True,Sure same,1,3.141592653589793,150.0,3232.0,8.080856419640986,2022-06-23 16:43:59
505,Main,5,1,28,Graphic designer,True,,n_AD,n_BC,True,True,False,Sure same,0,0.0,150.0,2545.0,7.841885928984623,2022-06-23 16:43:59
506,Main,5,1,29,Graphic designer,True,,z_AD,z_AD,True,True,True,Sure same,1,3.141592653589793,150.0,2247.0,7.717351272185329,2022-06-23 16:43:59
507,Main,5,1,30,Graphic designer,True,,t_AA,t_AA,False,True,True,Sure same,1,3.141592653589793,150.0,2989.0,8.002694162283937,2022-06-23 16:43:59
508,Main,5,1,31,Graphic designer,True,,a_AD,a_BD,True,False,False,Sure same,0,0.0,150.0,2383.0,7.776115477098742,2022-06-23 16:43:59
509,Main,5,1,32,Graphic designer,True,,t_BC,t_AD,True,True,False,Sure same,0,0.0,150.0,2364.0,7.768110378525988,2022-06-23 16:43:59
510,Main,5,1,33,Graphic designer,True,,b_AB,b_AD,True,False,True,Probably different,0,0.0,150.0,3219.0,8.076826031298808,2022-06-23 16:43:59
511,Main,5,1,34,Graphic designer,True,,j_AD,j_AD,True,True,True,Sure same,1,3.141592653589793,150.0,2399.0,7.782807262839695,2022-06-23 16:43:59
512,Main,5,1,35,Graphic designer,True,,h_BC,h_AD,True,True,False,Sure different,1,3.141592653589793,150.0,2688.0,7.89655270164304,2022-06-23 16:43:59
513,Main,5,1,36,Graphic designer,True,,z_AD,z_BC,True,True,False,Sure different,1,3.141592653589793,150.0,2728.0,7.911324018963353,2022-06-23 16:43:59
514,Main,5,1,37,Graphic designer,True,,j_AA,j_AA,False,True,True,Sure same,1,3.141592653589793,150.0,3379.0,8.12533508671429,2022-06-23 16:43:59
515,Main,5,1,38,Graphic designer,True,,p_BD,p_AD,True,False,False,Sure same,0,0.0,150.0,3617.0,8.193400231952097,2022-06-23 16:43:59
516,Main,5,1,39,Graphic designer,True,,h_AA,h_AA,False,True,True,Sure same,1,3.141592653589793,150.0,2184.0,7.688913336864796,2022-06-23 16:43:59
517,Main,5,1,40,Graphic designer,True,,c_AB,c_AD,True,False,True,Sure same,1,3.141592653589793,150.0,2600.0,7.8632667240095735,2022-06-23 16:43:59
518,Main,5,1,41,Graphic designer,True,,b_DD,b_AA,False,True,False,Sure different,1,3.141592653589793,150.0,2389.0,7.77863014732581,2022-06-23 16:43:59
519,Main,5,1,42,Graphic designer,True,,j_BC,j_AD,True,True,False,Sure same,0,0.0,150.0,2913.0,7.976938756959434,2022-06-23 16:43:59
520,Main,5,1,43,Graphic designer,True,,j_AD,j_BD,True,False,False,Sure different,1,3.141592653589793,150.0,2483.0,7.817222785508166,2022-06-23 16:43:59
521,Main,5,1,44,Graphic designer,True,,q_DD,q_AA,False,True,False,Sure same,0,0.0,150.0,3195.0,8.069342366811636,2022-06-23 16:43:59
522,Main,5,1,45,Graphic designer,True,,a_DD,a_AA,False,True,False,Sure different,1,3.141592653589793,150.0,2501.0,7.824445930877619,2022-06-23 16:43:59
523,Main,5,1,46,Graphic designer,True,,t_AD,t_AD,True,True,True,Sure same,1,3.141592653589793,150.0,3103.0,8.04012466444838,2022-06-23 16:43:59
524,Main,5,1,47,Graphic designer,True,,c_AD,c_AD,True,True,True,Sure same,1,3.141592653589793,150.0,2831.0,7.9483852851118995,2022-06-23 16:43:59
525,Main,5,1,48,Graphic designer,True,,b_AA,b_AA,False,True,True,Sure same,1,3.141592653589793,150.0,2247.0,7.717351272185329,2022-06-23 16:43:59
526,Main,5,1,49,Graphic designer,True,,a_AA,a_AA,False,True,True,Sure same,1,3.141592653589793,150.0,2274.0,7.729295674310482,2022-06-23 16:43:59
527,Main,5,1,50,Graphic designer,True,,c_BD,c_AD,True,False,False,Sure same,0,0.0,150.0,2299.0,7.740229524763182,2022-06-23 16:43:59
528,Main,5,1,51,Graphic designer,True,,p_AD,p_AD,True,True,True,Sure same,1,3.141592653589793,150.0,2256.0,7.721348612617949,2022-06-23 16:43:59
529,Main,5,1,52,Graphic designer,True,,r_AB,r_AD,True,False,True,Sure same,1,3.141592653589793,150.0,2319.0,7.7488913372555315,2022-06-23 16:43:59
530,Main,5,1,53,Graphic designer,True,,z_BD,z_AD,True,False,False,Sure different,1,3.141592653589793,150.0,2374.0,7.772331575169614,2022-06-23 16:43:59
531,Main,5,1,54,Graphic designer,True,,a_AD,a_BC,True,True,False,Sure same,0,0.0,150.0,2249.0,7.718240951959316,2022-06-23 16:43:59
532,Main,5,1,55,Graphic designer,True,,p_BC,p_AD,True,True,False,Sure same,0,0.0,150.0,2572.0,7.85243908535751,2022-06-23 16:43:59
533,Main,5,1,56,Graphic designer,True,,a_AD,a_AD,True,True,True,Sure same,1,3.141592653589793,150.0,2360.0,7.7664168980196555,2022-06-23 16:43:59
534,Main,5,1,57,Graphic designer,True,,b_AD,b_AD,True,True,True,Sure same,1,3.141592653589793,150.0,2138.0,7.6676260915849905,2022-06-23 16:43:59
535,Main,5,1,58,Graphic designer,True,,t_AD,t_BD,True,False,False,Sure same,0,0.0,150.0,2253.0,7.720017940432244,2022-06-23 16:43:59
536,Main,5,1,59,Graphic designer,True,,h_AD,h_BD,True,False,False,Sure different,1,3.141592653589793,150.0,2703.0,7.902117546276448,2022-06-23 16:43:59
537,Main,5,1,60,Graphic designer,True,,e_AA,e_AA,False,True,True,Sure same,1,3.141592653589793,150.0,2646.0,7.880804344674901,2022-06-23 16:43:59
538,Main,5,1,61,Graphic designer,True,,e_DD,e_AA,False,True,False,Sure same,0,0.0,150.0,2092.0,7.645875825184813,2022-06-23 16:43:59
539,Main,5,1,62,Graphic designer,True,,z_AA,z_AA,False,True,True,Sure same,1,3.141592653589793,150.0,2053.0,7.627057417018934,2022-06-23 16:43:59
540,Main,5,1,63,Graphic designer,True,,r_AA,r_DD,False,True,False,Sure different,1,3.141592653589793,150.0,2376.0,7.773173680482536,2022-06-23 16:43:59
541,Main,5,1,64,Graphic designer,True,,r_BD,r_AD,True,False,False,Sure same,0,0.0,150.0,2497.0,7.822845290279774,2022-06-23 16:43:59
542,Main,5,1,65,Graphic designer,True,,h_AD,h_AD,True,True,True,Sure same,1,3.141592653589793,150.0,2195.0,7.693937325509272,2022-06-23 16:43:59
543,Main,5,1,66,Graphic designer,True,,t_AA,t_DD,False,True,False,Probably different,1,3.141592653589793,150.0,4028.0,8.301025253838453,2022-06-23 16:43:59
544,Main,5,1,67,Graphic designer,True,,r_AA,r_AA,False,True,True,Sure same,1,3.141592653589793,150.0,2314.0,7.746732907753622,2022-06-23 16:43:59
545,Main,5,1,68,Graphic designer,True,,n_DD,n_AA,False,True,False,Probably different,1,3.141592653589793,150.0,3610.0,8.191463051326927,2022-06-23 16:43:59
546,Main,5,1,69,Graphic designer,True,,n_AD,n_AD,True,True,True,Sure same,1,3.141592653589793,150.0,2708.0,7.903965634032166,2022-06-23 16:43:59
547,Main,5,1,70,Graphic designer,True,,e_AD,e_BD,True,False,False,Sure same,0,0.0,150.0,2798.0,7.936660155225426,2022-06-23 16:43:59
548,Main,5,1,71,Graphic designer,True,,z_DD,z_AA,False,True,False,Sure different,1,3.141592653589793,150.0,3022.0,8.013674142832684,2022-06-23 16:43:59
549,Main,5,1,72,Graphic designer,True,,e_AD,e_AD,True,True,True,Sure same,1,3.141592653589793,150.0,2979.0,7.999342952713282,2022-06-23 16:43:59
550,Main,5,0,19,Graphic designer,True,,u_AD,u_BD,True,False,False,Sure different,1,3.141592653589793,725.0,3533.0,8.169902647359145,2022-06-23 16:43:59
551,Main,5,0,20,Graphic designer,True,,i_AD,i_AD,True,True,True,Sure same,1,3.141592653589793,800.0,3614.0,8.192570471152173,2022-06-23 16:43:59
552,Main,6,0,1,Non-designer,False,,d_BC,d_AD,True,True,False,Probably different,1,3.141592653589793,800.0,12339.0,9.420520256898534,2022-06-17 13:55:27
553,Main,6,0,2,Non-designer,False,,u_DD,u_AA,False,True,False,Sure different,1,3.141592653589793,800.0,4533.0,8.41913925094085,2022-06-17 13:55:27
554,Main,6,0,3,Non-designer,False,,d_DD,d_AA,False,True,False,Sure different,1,3.141592653589793,800.0,5877.0,8.678801706612651,2022-06-17 13:55:27
555,Main,6,0,4,Non-designer,False,,d_AA,d_AA,False,True,True,Probably different,0,0.0,725.0,20438.0,9.925151192172155,2022-06-17 13:55:27
556,Main,6,0,5,Non-designer,False,,i_AA,i_DD,False,True,False,Sure different,1,3.141592653589793,650.0,6636.0,8.800264651310336,2022-06-17 13:55:27
557,Main,6,0,6,Non-designer,False,,d_AD,d_BC,True,True,False,Probably same,0,0.0,575.0,3778.0,8.236950048061455,2022-06-17 13:55:27
558,Main,6,0,7,Non-designer,False,,i_BD,i_AD,True,False,False,Sure different,1,3.141592653589793,500.0,3371.0,8.12296471523406,2022-06-17 13:55:27
559,Main,6,0,8,Non-designer,False,,d_BD,d_AD,True,False,False,Probably same,0,0.0,425.0,3579.0,8.182838710766026,2022-06-17 13:55:27
560,Main,6,0,9,Non-designer,False,,u_AD,u_AB,True,False,True,Probably same,1,3.141592653589793,350.0,4267.0,8.358666283188,2022-06-17 13:55:27
561,Main,6,0,10,Non-designer,False,,d_AB,d_AD,True,False,True,Probably same,1,3.141592653589793,275.0,13010.0,9.47347357150655,2022-06-17 13:55:27
562,Main,6,0,11,Non-designer,False,,u_BC,u_AD,True,True,False,Probably different,1,3.141592653589793,200.0,2915.0,7.977625098784593,2022-06-17 13:55:27
563,Main,6,0,12,Non-designer,False,,u_AA,u_AA,False,True,True,Probably same,1,3.141592653589793,200.0,2645.0,7.8804263442924,2022-06-17 13:55:27
564,Main,6,0,13,Non-designer,False,,i_BC,i_AD,True,True,False,Sure different,1,3.141592653589793,275.0,2732.0,7.912789220690681,2022-06-17 13:55:27
565,Main,6,0,14,Non-designer,False,,i_AD,i_AB,True,False,True,Sure same,1,3.141592653589793,350.0,2853.0,7.9561263512135,2022-06-17 13:55:27
566,Main,6,0,15,Non-designer,False,,u_AD,u_AD,True,True,True,Probably same,1,3.141592653589793,425.0,3471.0,8.152198015861787,2022-06-17 13:55:27
567,Main,6,0,16,Non-designer,False,,u_DD,u_AA,False,True,False,Sure different,1,3.141592653589793,500.0,3531.0,8.169336395928386,2022-06-17 13:55:27
568,Main,6,0,17,Non-designer,False,,d_AD,d_AD,True,True,True,Sure same,1,3.141592653589793,575.0,3851.0,8.25608813381491,2022-06-17 13:55:27
569,Main,6,0,18,Non-designer,False,,i_AA,i_AA,False,True,True,Sure same,1,3.141592653589793,650.0,3955.0,8.282735880201754,2022-06-17 13:55:27
570,Main,6,1,1,Non-designer,False,,b_AB,b_AD,True,False,True,Probably same,1,3.141592653589793,266.7,5783.0,8.662677858158219,2022-06-17 13:55:27
571,Main,6,1,2,Non-designer,False,,z_AB,z_AD,True,False,True,Probably same,1,3.141592653589793,266.7,3088.0,8.035278911144667,2022-06-17 13:55:27
572,Main,6,1,3,Non-designer,False,,j_AD,j_AD,True,True,True,Probably same,1,3.141592653589793,266.7,2881.0,7.9658927350845286,2022-06-17 13:55:27
573,Main,6,1,4,Non-designer,False,,r_AD,r_AD,True,True,True,Probably same,1,3.141592653589793,266.7,2814.0,7.942362237674335,2022-06-17 13:55:27
574,Main,6,1,5,Non-designer,False,,h_AD,h_BC,True,True,False,Probably same,0,0.0,266.7,2583.0,7.8567067930958405,2022-06-17 13:55:27
575,Main,6,1,6,Non-designer,False,,p_DD,p_AA,False,True,False,Sure different,1,3.141592653589793,266.7,2760.0,7.9229859587111955,2022-06-17 13:55:27
576,Main,6,1,7,Non-designer,False,,n_AA,n_AA,False,True,True,Probably different,0,0.0,266.7,3486.0,8.156510226079966,2022-06-17 13:55:27
577,Main,6,1,8,Non-designer,False,,p_AA,p_AA,False,True,True,Probably same,1,3.141592653589793,266.7,3312.0,8.10530751550515,2022-06-17 13:55:27
578,Main,6,1,9,Non-designer,False,,e_DD,e_AA,False,True,False,Sure different,1,3.141592653589793,266.7,2777.0,7.9291264873067995,2022-06-17 13:55:27
579,Main,6,1,10,Non-designer,False,,n_AB,n_AD,True,False,True,Probably different,0,0.0,266.7,2975.0,7.99799931797973,2022-06-17 13:55:27
580,Main,6,1,11,Non-designer,False,,h_AD,h_AB,True,False,True,Sure same,1,3.141592653589793,266.7,3062.0,8.026823576217629,2022-06-17 13:55:27
581,Main,6,1,12,Non-designer,False,,z_AA,z_AA,False,True,True,Sure same,1,3.141592653589793,266.7,2980.0,7.9996785794994505,2022-06-17 13:55:27
582,Main,6,1,13,Non-designer,False,,n_DD,n_AA,False,True,False,Probably different,1,3.141592653589793,266.7,3163.0,8.059276223305648,2022-06-17 13:55:27
583,Main,6,1,14,Non-designer,False,,h_AA,h_AA,False,True,True,Sure same,1,3.141592653589793,266.7,2928.0,7.982074875081202,2022-06-17 13:55:27
584,Main,6,1,15,Non-designer,False,,c_DD,c_AA,False,True,False,Sure different,1,3.141592653589793,266.7,3315.0,8.106212902619962,2022-06-17 13:55:27
585,Main,6,1,16,Non-designer,False,,z_AD,z_AD,True,True,True,Sure same,1,3.141592653589793,266.7,2859.0,7.958227192322312,2022-06-17 13:55:27
586,Main,6,1,17,Non-designer,False,,c_BC,c_AD,True,True,False,Sure different,1,3.141592653589793,266.7,3169.0,8.06117135969092,2022-06-17 13:55:27
587,Main,6,1,18,Non-designer,False,,b_AD,b_BC,True,True,False,Probably same,0,0.0,266.7,2892.0,7.969703583278656,2022-06-17 13:55:27
588,Main,6,1,19,Non-designer,False,,n_AD,n_BD,True,False,False,Probably same,0,0.0,266.7,2647.0,7.881182202227102,2022-06-17 13:55:27
589,Main,6,1,20,Non-designer,False,,n_AD,n_AD,True,True,True,Sure same,1,3.141592653589793,266.7,2838.0,7.950854857719988,2022-06-17 13:55:27
590,Main,6,1,21,Non-designer,False,,j_AA,j_AA,False,True,True,Probably same,1,3.141592653589793,266.7,4666.0,8.448057452581375,2022-06-17 13:55:27
591,Main,6,1,22,Non-designer,False,,z_BD,z_AD,True,False,False,Sure different,1,3.141592653589793,266.7,2854.0,7.956476798036782,2022-06-17 13:55:27
592,Main,6,1,23,Non-designer,False,,r_AD,r_BC,True,True,False,Sure different,1,3.141592653589793,266.7,3324.0,8.10892415597534,2022-06-17 13:55:27
593,Main,6,1,24,Non-designer,False,,j_AD,j_AB,True,False,True,Sure different,0,0.0,266.7,3316.0,8.106514516255185,2022-06-17 13:55:27
594,Main,6,1,25,Non-designer,False,,a_AA,a_AA,False,True,True,Probably different,0,0.0,266.7,3510.0,8.163371316459912,2022-06-17 13:55:27
595,Main,6,1,26,Non-designer,False,,h_AD,h_AD,True,True,True,Sure same,1,3.141592653589793,266.7,2970.0,7.996317231796746,2022-06-17 13:55:27
596,Main,6,1,27,Non-designer,False,,q_AA,q_AA,False,True,True,Probably same,1,3.141592653589793,266.7,4043.0,8.304742269640771,2022-06-17 13:55:27
597,Main,6,1,28,Non-designer,False,,e_BD,e_AD,True,False,False,Probably same,0,0.0,266.7,3360.0,8.11969625295725,2022-06-17 13:55:27
598,Main,6,1,29,Non-designer,False,,p_AB,p_AD,True,False,True,Probably different,0,0.0,266.7,3164.0,8.059592328887545,2022-06-17 13:55:27
599,Main,6,1,30,Non-designer,False,,j_BD,j_AD,True,False,False,Sure different,1,3.141592653589793,266.7,2834.0,7.949444420250626,2022-06-17 13:55:27
600,Main,6,1,31,Non-designer,False,,j_AA,j_DD,False,True,False,Sure different,1,3.141592653589793,266.7,2758.0,7.922261058353247,2022-06-17 13:55:27
601,Main,6,1,32,Non-designer,False,,q_DD,q_AA,False,True,False,Sure different,1,3.141592653589793,266.7,2988.0,8.002359546252707,2022-06-17 13:55:27
602,Main,6,1,33,Non-designer,False,,c_AB,c_AD,True,False,True,Sure different,0,0.0,266.7,3248.0,8.085794701281568,2022-06-17 13:55:27
603,Main,6,1,34,Non-designer,False,,p_BD,p_AD,True,False,False,Sure different,1,3.141592653589793,266.7,2748.0,7.91862865334224,2022-06-17 13:55:27
604,Main,6,1,35,Non-designer,False,,b_AD,b_AD,True,True,True,Probably same,1,3.141592653589793,266.7,3996.0,8.293049139768444,2022-06-17 13:55:27
605,Main,6,1,36,Non-designer,False,,z_BC,z_AD,True,True,False,Sure different,1,3.141592653589793,266.7,2598.0,7.862497197230545,2022-06-17 13:55:27
606,Main,6,1,37,Non-designer,False,,h_AD,h_BD,True,False,False,Sure different,1,3.141592653589793,266.7,3343.0,8.114623886420098,2022-06-17 13:55:27
607,Main,6,1,38,Non-designer,False,,n_BC,n_AD,True,True,False,Sure different,1,3.141592653589793,266.7,2781.0,7.930565854233965,2022-06-17 13:55:27
608,Main,6,1,39,Non-designer,False,,t_AD,t_AD,True,True,True,Probably same,1,3.141592653589793,266.7,3096.0,8.037866234709618,2022-06-17 13:55:27
609,Main,6,1,40,Non-designer,False,,q_AD,q_AB,True,False,True,Probably same,1,3.141592653589793,266.7,3976.0,8.288031567776464,2022-06-17 13:55:27
610,Main,6,1,41,Non-designer,False,,c_BD,c_AD,True,False,False,Sure different,1,3.141592653589793,266.7,2932.0,7.983440063006542,2022-06-17 13:55:27
611,Main,6,1,42,Non-designer,False,,e_AD,e_AD,True,True,True,Probably same,1,3.141592653589793,266.7,3202.0,8.07153089355666,2022-06-17 13:55:27
612,Main,6,1,43,Non-designer,False,,a_AB,a_AD,True,False,True,Probably same,1,3.141592653589793,266.7,4048.0,8.305978210967302,2022-06-17 13:55:27
613,Main,6,1,44,Non-designer,False,,e_AD,e_AB,True,False,True,Probably different,0,0.0,266.7,3286.0,8.097426298597213,2022-06-17 13:55:27
614,Main,6,1,45,Non-designer,False,,p_AD,p_AD,True,True,True,Probably same,1,3.141592653589793,266.7,3265.0,8.09101504171053,2022-06-17 13:55:27
615,Main,6,1,46,Non-designer,False,,b_AA,b_AA,False,True,True,Probably same,1,3.141592653589793,266.7,2727.0,7.910957382845589,2022-06-17 13:55:27
616,Main,6,1,47,Non-designer,False,,t_BC,t_AD,True,True,False,Probably different,1,3.141592653589793,266.7,2736.0,7.914252278742441,2022-06-17 13:55:27
617,Main,6,1,48,Non-designer,False,,e_AA,e_AA,False,True,True,Sure same,1,3.141592653589793,266.7,3376.0,8.124446855715847,2022-06-17 13:55:27
618,Main,6,1,49,Non-designer,False,,c_AD,c_AD,True,True,True,Probably same,1,3.141592653589793,266.7,3069.0,8.029107054619736,2022-06-17 13:55:27
619,Main,6,1,50,Non-designer,False,,b_AA,b_DD,False,True,False,Probably different,1,3.141592653589793,266.7,3118.0,8.044947049617722,2022-06-17 13:55:27
620,Main,6,1,51,Non-designer,False,,r_AA,r_AA,False,True,True,Probably same,1,3.141592653589793,266.7,3045.0,8.021256180143997,2022-06-17 13:55:27
621,Main,6,1,52,Non-designer,False,,a_DD,a_AA,False,True,False,Sure different,1,3.141592653589793,266.7,3082.0,8.033334015880062,2022-06-17 13:55:27
622,Main,6,1,53,Non-designer,False,,r_AA,r_DD,False,True,False,Sure different,1,3.141592653589793,266.7,2782.0,7.930925372483388,2022-06-17 13:55:27
623,Main,6,1,54,Non-designer,False,,a_AD,a_AD,True,True,True,Sure same,1,3.141592653589793,266.7,2845.0,7.953318346560431,2022-06-17 13:55:27
624,Main,6,1,55,Non-designer,False,,a_AD,a_BC,True,True,False,Sure same,0,0.0,266.7,2719.0,7.908019444632471,2022-06-17 13:55:27
625,Main,6,1,56,Non-designer,False,,a_AD,a_BD,True,False,False,Sure same,0,0.0,266.7,2666.0,7.888334500738654,2022-06-17 13:55:27
626,Main,6,1,57,Non-designer,False,,e_BC,e_AD,True,True,False,Sure same,0,0.0,266.7,2790.0,7.933796874815411,2022-06-17 13:55:27
627,Main,6,1,58,Non-designer,False,,r_AB,r_AD,True,False,True,Sure same,1,3.141592653589793,266.7,2785.0,7.932003152361385,2022-06-17 13:55:27
628,Main,6,1,59,Non-designer,False,,t_DD,t_AA,False,True,False,Sure different,1,3.141592653589793,266.7,3068.0,8.028781162487148,2022-06-17 13:55:27
629,Main,6,1,60,Non-designer,False,,c_AA,c_AA,False,True,True,Probably same,1,3.141592653589793,266.7,3376.0,8.124446855715847,2022-06-17 13:55:27
630,Main,6,1,61,Non-designer,False,,t_AA,t_AA,False,True,True,Sure same,1,3.141592653589793,266.7,3025.0,8.014666370464942,2022-06-17 13:55:27
631,Main,6,1,62,Non-designer,False,,p_AD,p_BC,True,True,False,Probably different,1,3.141592653589793,266.7,3830.0,8.250620082174692,2022-06-17 13:55:27
632,Main,6,1,63,Non-designer,False,,h_AA,h_DD,False,True,False,Sure different,1,3.141592653589793,266.7,3216.0,8.075893630298857,2022-06-17 13:55:27
633,Main,6,1,64,Non-designer,False,,j_BC,j_AD,True,True,False,Sure same,0,0.0,266.7,3737.0,8.226038429485484,2022-06-17 13:55:27
634,Main,6,1,65,Non-designer,False,,q_BD,q_AD,True,False,False,Sure same,0,0.0,266.7,2639.0,7.878155336503324,2022-06-17 13:55:27
635,Main,6,1,66,Non-designer,False,,q_AD,q_AD,True,True,True,Sure same,1,3.141592653589793,266.7,2700.0,7.90100705199242,2022-06-17 13:55:27
636,Main,6,1,67,Non-designer,False,,b_AD,b_BD,True,False,False,Probably same,0,0.0,266.7,3458.0,8.148445666243235,2022-06-17 13:55:27
637,Main,6,1,68,Non-designer,False,,q_AD,q_BC,True,True,False,Sure same,0,0.0,266.7,3016.0,8.011686729127847,2022-06-17 13:55:27
638,Main,6,1,69,Non-designer,False,,t_AB,t_AD,True,False,True,Sure same,1,3.141592653589793,266.7,2631.0,7.875119281040293,2022-06-17 13:55:27
639,Main,6,1,70,Non-designer,False,,t_AD,t_BD,True,False,False,Probably different,1,3.141592653589793,266.7,3423.0,8.138272638530186,2022-06-17 13:55:27
640,Main,6,1,71,Non-designer,False,,r_AD,r_BD,True,False,False,Probably same,0,0.0,266.7,3531.0,8.169336395928386,2022-06-17 13:55:27
641,Main,6,1,72,Non-designer,False,,z_DD,z_AA,False,True,False,Sure different,1,3.141592653589793,266.7,2853.0,7.9561263512135,2022-06-17 13:55:27
642,Main,6,0,19,Non-designer,False,,u_AD,u_BD,True,False,False,Sure different,1,3.141592653589793,725.0,3572.0,8.18088094199639,2022-06-17 13:55:27
643,Main,6,0,20,Non-designer,False,,i_AD,i_AD,True,True,True,Probably same,1,3.141592653589793,800.0,5839.0,8.672314828283538,2022-06-17 13:55:27
644,Main,7,0,1,Letter designer,True,,d_BC,d_AD,True,True,False,Probably same,0,0.0,800.0,42379.0,10.654408235508033,2022-06-17 13:23:00
645,Main,7,0,2,Letter designer,True,,u_DD,u_AA,False,True,False,Probably same,0,0.0,800.0,16660.0,9.720765915720834,2022-06-17 13:23:00
646,Main,7,0,3,Letter designer,True,,d_DD,d_AA,False,True,False,Probably same,0,0.0,800.0,26370.0,10.179982279347332,2022-06-17 13:23:00
647,Main,7,0,4,Letter designer,True,,d_AA,d_AA,False,True,True,Probably same,1,3.141592653589793,725.0,67781.0,11.124037198666844,2022-06-17 13:23:00
648,Main,7,0,5,Letter designer,True,,i_AA,i_DD,False,True,False,Sure different,1,3.141592653589793,650.0,4878.0,8.492490578775866,2022-06-17 13:23:00
649,Main,7,0,6,Letter designer,True,,d_BC,d_AD,True,True,False,Sure different,1,3.141592653589793,575.0,4701.0,8.45553053102413,2022-06-17 13:23:00
650,Main,7,0,7,Letter designer,True,,i_BD,i_AD,True,False,False,Sure different,1,3.141592653589793,500.0,4188.0,8.339978571990427,2022-06-17 13:23:00
651,Main,7,0,8,Letter designer,True,,d_AD,d_BD,True,False,False,Sure different,1,3.141592653589793,425.0,3555.0,8.176110342237342,2022-06-17 13:23:00
652,Main,7,0,9,Letter designer,True,,u_AB,u_AD,True,False,True,Sure same,1,3.141592653589793,350.0,6431.0,8.768885326134862,2022-06-17 13:23:00
653,Main,7,0,10,Letter designer,True,,d_AB,d_AD,True,False,True,Sure same,1,3.141592653589793,275.0,3382.0,8.126222529458525,2022-06-17 13:23:00
654,Main,7,0,11,Letter designer,True,,u_AD,u_BC,True,True,False,Sure different,1,3.141592653589793,200.0,4080.0,8.313852267398207,2022-06-17 13:23:00
655,Main,7,0,12,Letter designer,True,,u_AA,u_AA,False,True,True,Sure same,1,3.141592653589793,200.0,4835.0,8.483636407887394,2022-06-17 13:23:00
656,Main,7,0,13,Letter designer,True,,i_BC,i_AD,True,True,False,Sure different,1,3.141592653589793,275.0,4319.0,8.3707791729607,2022-06-17 13:23:00
657,Main,7,0,14,Letter designer,True,,i_AD,i_AB,True,False,True,Sure same,1,3.141592653589793,350.0,4090.0,8.316300249036848,2022-06-17 13:23:00
658,Main,7,0,15,Letter designer,True,,u_AD,u_AD,True,True,True,Sure same,1,3.141592653589793,425.0,3511.0,8.163656176168432,2022-06-17 13:23:00
659,Main,7,0,16,Letter designer,True,,u_DD,u_AA,False,True,False,Sure different,1,3.141592653589793,500.0,5112.0,8.53934599605737,2022-06-17 13:23:00
660,Main,7,0,17,Letter designer,True,,d_AD,d_AD,True,True,True,Sure same,1,3.141592653589793,575.0,6065.0,8.71028982137815,2022-06-17 13:23:00
661,Main,7,0,18,Letter designer,True,,i_AA,i_AA,False,True,True,Sure same,1,3.141592653589793,650.0,3952.0,8.281977058867758,2022-06-17 13:23:00
662,Main,7,1,1,Letter designer,True,,p_AB,p_AD,True,False,True,Probably same,1,3.141592653589793,188.9,11905.0,9.384713758920963,2022-06-17 13:23:00
663,Main,7,1,2,Letter designer,True,,c_AD,c_BD,True,False,False,Probably same,0,0.0,188.9,6470.0,8.774931387494947,2022-06-17 13:23:00
664,Main,7,1,3,Letter designer,True,,q_AA,q_DD,False,True,False,Sure different,1,3.141592653589793,188.9,4052.0,8.306965865368573,2022-06-17 13:23:00
665,Main,7,1,4,Letter designer,True,,a_BD,a_AD,True,False,False,Sure different,1,3.141592653589793,188.9,3769.0,8.234564993267135,2022-06-17 13:23:00
666,Main,7,1,5,Letter designer,True,,r_BC,r_AD,True,True,False,Sure different,1,3.141592653589793,188.9,3307.0,8.103796712981794,2022-06-17 13:23:00
667,Main,7,1,6,Letter designer,True,,t_BC,t_AD,True,True,False,Sure different,1,3.141592653589793,188.9,3094.0,8.037220031133012,2022-06-17 13:23:00
668,Main,7,1,7,Letter designer,True,,e_AD,e_AB,True,False,True,Sure different,0,0.0,188.9,3174.0,8.062747901086354,2022-06-17 13:23:00
669,Main,7,1,8,Letter designer,True,,z_BC,z_AD,True,True,False,Sure different,1,3.141592653589793,188.9,2923.0,7.980365765111246,2022-06-17 13:23:00
670,Main,7,1,9,Letter designer,True,,r_AD,r_AD,True,True,True,Probably same,1,3.141592653589793,188.9,4775.0,8.471149252914831,2022-06-17 13:23:00
671,Main,7,1,10,Letter designer,True,,e_AD,e_BC,True,True,False,Probably same,0,0.0,188.9,4187.0,8.339739766019143,2022-06-17 13:23:00
672,Main,7,1,11,Letter designer,True,,r_AB,r_AD,True,False,True,Probably same,1,3.141592653589793,188.9,3270.0,8.0925452638913,2022-06-17 13:23:00
673,Main,7,1,12,Letter designer,True,,q_AB,q_AD,True,False,True,Probably different,0,0.0,188.9,3699.0,8.215817791832453,2022-06-17 13:23:00
674,Main,7,1,13,Letter designer,True,,j_AA,j_AA,False,True,True,Probably same,1,3.141592653589793,188.9,3173.0,8.062432791583195,2022-06-17 13:23:00
675,Main,7,1,14,Letter designer,True,,n_AD,n_BD,True,False,False,Sure different,1,3.141592653589793,188.9,4120.0,8.323608442343572,2022-06-17 13:23:00
676,Main,7,1,15,Letter designer,True,,p_BD,p_AD,True,False,False,Sure different,1,3.141592653589793,188.9,3112.0,8.043020885298283,2022-06-17 13:23:00
677,Main,7,1,16,Letter designer,True,,q_BD,q_AD,True,False,False,Probably different,1,3.141592653589793,188.9,3440.0,8.143226750367445,2022-06-17 13:23:00
678,Main,7,1,17,Letter designer,True,,p_BC,p_AD,True,True,False,Sure different,1,3.141592653589793,188.9,3391.0,8.128880142125638,2022-06-17 13:23:00
679,Main,7,1,18,Letter designer,True,,n_BC,n_AD,True,True,False,Sure different,1,3.141592653589793,188.9,3232.0,8.080856419640986,2022-06-17 13:23:00
680,Main,7,1,19,Letter designer,True,,r_AA,r_AA,False,True,True,Probably different,0,0.0,188.9,3112.0,8.043020885298283,2022-06-17 13:23:00
681,Main,7,1,20,Letter designer,True,,n_AD,n_AB,True,False,True,Probably same,1,3.141592653589793,188.9,3535.0,8.170468578330674,2022-06-17 13:23:00
682,Main,7,1,21,Letter designer,True,,a_BC,a_AD,True,True,False,Probably same,0,0.0,188.9,3291.0,8.098946748943339,2022-06-17 13:23:00
683,Main,7,1,22,Letter designer,True,,t_AA,t_DD,False,True,False,Sure different,1,3.141592653589793,188.9,4751.0,8.46611040118692,2022-06-17 13:23:00
684,Main,7,1,23,Letter designer,True,,b_AD,b_BC,True,True,False,Sure different,1,3.141592653589793,188.9,3004.0,8.007700012884026,2022-06-17 13:23:00
685,Main,7,1,24,Letter designer,True,,e_AD,e_BD,True,False,False,Probably different,1,3.141592653589793,188.9,5801.0,8.665785595466064,2022-06-17 13:23:00
686,Main,7,1,25,Letter designer,True,,b_DD,b_AA,False,True,False,Sure different,1,3.141592653589793,188.9,3361.0,8.119993827725105,2022-06-17 13:23:00
687,Main,7,1,26,Letter designer,True,,h_AD,h_AD,True,True,True,Probably same,1,3.141592653589793,188.9,4882.0,8.493310250952906,2022-06-17 13:23:00
688,Main,7,1,27,Letter designer,True,,z_AD,z_AB,True,False,True,Probably same,1,3.141592653589793,188.9,5372.0,8.588955557643128,2022-06-17 13:23:00
