,StudyID,ParticipantID,TestID,TrialID,Training,isDesigner,First,Second,Composite pair,Congruent pair,Same,Response,Correct,Correct (normalized),ET,RT,RT (normalized),Date
0,Main,0,0,1,Other designer,True,d_AD,d_BC,True,True,False,Probably same,0,0.0,800.0,8332.0,9.027858802380862,2022-06-15 14:02:35
1,Main,0,0,2,Other designer,True,u_AA,u_DD,False,True,False,Sure different,1,3.141592653589793,800.0,4031.0,8.301769763117166,2022-06-15 14:02:35
2,Main,0,0,3,Other designer,True,d_AA,d_DD,False,True,False,Sure different,1,3.141592653589793,800.0,3578.0,8.182559264068665,2022-06-15 14:02:35
3,Main,0,0,4,Other designer,True,d_AA,d_AA,False,True,True,Sure same,1,3.141592653589793,725.0,3417.0,8.136518252115291,2022-06-15 14:02:35
4,Main,0,0,5,Other designer,True,i_DD,i_AA,False,True,False,Sure different,1,3.141592653589793,650.0,3276.0,8.09437844497296,2022-06-15 14:02:35
5,Main,0,0,6,Other designer,True,d_AD,d_BC,True,True,False,Sure same,0,0.0,575.0,3226.0,8.078998258685154,2022-06-15 14:02:35
6,Main,0,0,7,Other designer,True,i_BD,i_AD,True,False,False,Probably different,1,3.141592653589793,500.0,3752.0,8.230044310126114,2022-06-15 14:02:35
7,Main,0,0,8,Other designer,True,d_BD,d_AD,True,False,False,Probably different,1,3.141592653589793,425.0,4332.0,8.37378460812088,2022-06-15 14:02:35
8,Main,0,0,9,Other designer,True,u_AB,u_AD,True,False,True,Probably same,1,3.141592653589793,350.0,4430.0,8.39615486303918,2022-06-15 14:02:35
9,Main,0,0,10,Other designer,True,d_AD,d_AB,True,False,True,Probably same,1,3.141592653589793,275.0,3844.0,8.254268770090183,2022-06-15 14:02:35
10,Main,0,0,11,Other designer,True,u_AD,u_BC,True,True,False,Probably different,1,3.141592653589793,200.0,2767.0,7.925518979786926,2022-06-15 14:02:35
11,Main,0,0,12,Other designer,True,u_AA,u_AA,False,True,True,Probably different,0,0.0,200.0,2942.0,7.9868449011613825,2022-06-15 14:02:35
12,Main,0,0,13,Other designer,True,i_AD,i_BC,True,True,False,Probably same,0,0.0,275.0,3148.0,8.054522609537294,2022-06-15 14:02:35
13,Main,0,0,14,Other designer,True,i_AD,i_AB,True,False,True,Sure same,1,3.141592653589793,350.0,3386.0,8.12740456269308,2022-06-15 14:02:35
14,Main,0,0,15,Other designer,True,u_AD,u_AD,True,True,True,Probably same,1,3.141592653589793,425.0,2908.0,7.97522083865341,2022-06-15 14:02:35
15,Main,0,0,16,Other designer,True,u_DD,u_AA,False,True,False,Sure different,1,3.141592653589793,500.0,2891.0,7.969357742016346,2022-06-15 14:02:35
16,Main,0,0,17,Other designer,True,d_AD,d_AD,True,True,True,Probably different,0,0.0,575.0,6308.0,8.74957394808293,2022-06-15 14:02:35
17,Main,0,0,18,Other designer,True,i_AA,i_AA,False,True,True,Sure same,1,3.141592653589793,650.0,4126.0,8.325063693631197,2022-06-15 14:02:35
18,Main,0,1,1,Other designer,True,h_AD,h_BC,True,True,False,Sure same,0,0.0,305.6,5345.0,8.583916823459145,2022-06-15 14:02:35
19,Main,0,1,2,Other designer,True,t_AA,t_AA,False,True,True,Probably same,1,3.141592653589793,305.6,2861.0,7.95892649305011,2022-06-15 14:02:35
20,Main,0,1,3,Other designer,True,q_AD,q_BC,True,True,False,Probably same,0,0.0,305.6,2892.0,7.969703583278656,2022-06-15 14:02:35
21,Main,0,1,4,Other designer,True,p_BD,p_AD,True,False,False,Probably same,0,0.0,305.6,3089.0,8.035602692918582,2022-06-15 14:02:35
22,Main,0,1,5,Other designer,True,h_AA,h_AA,False,True,True,Probably same,1,3.141592653589793,305.6,2539.0,7.839525581704678,2022-06-15 14:02:35
23,Main,0,1,6,Other designer,True,z_AD,z_AD,True,True,True,Probably same,1,3.141592653589793,305.6,2715.0,7.906547232368036,2022-06-15 14:02:35
24,Main,0,1,7,Other designer,True,c_AD,c_BD,True,False,False,Probably same,0,0.0,305.6,2605.0,7.865187954187467,2022-06-15 14:02:35
25,Main,0,1,8,Other designer,True,t_BD,t_AD,True,False,False,Probably same,0,0.0,305.6,2666.0,7.888334500738654,2022-06-15 14:02:35
26,Main,0,1,9,Other designer,True,b_AA,b_AA,False,True,True,Sure same,1,3.141592653589793,305.6,2905.0,7.974188669286011,2022-06-15 14:02:35
27,Main,0,1,10,Other designer,True,r_AD,r_AD,True,True,True,Probably same,1,3.141592653589793,305.6,2897.0,7.9714309977693505,2022-06-15 14:02:35
28,Main,0,1,11,Other designer,True,j_AA,j_AA,False,True,True,Sure same,1,3.141592653589793,305.6,5505.0,8.61341204915678,2022-06-15 14:02:35
29,Main,0,1,12,Other designer,True,c_AB,c_AD,True,False,True,Probably same,1,3.141592653589793,305.6,4823.0,8.481151420068972,2022-06-15 14:02:35
30,Main,0,1,13,Other designer,True,h_AA,h_DD,False,True,False,Sure different,1,3.141592653589793,305.6,3137.0,8.051022208190679,2022-06-15 14:02:35
31,Main,0,1,14,Other designer,True,c_AD,c_AD,True,True,True,Probably same,1,3.141592653589793,305.6,2879.0,7.965198290612176,2022-06-15 14:02:35
32,Main,0,1,15,Other designer,True,b_AD,b_AB,True,False,True,Probably same,1,3.141592653589793,305.6,2878.0,7.964850887447313,2022-06-15 14:02:35
33,Main,0,1,16,Other designer,True,p_DD,p_AA,False,True,False,Sure different,1,3.141592653589793,305.6,2965.0,7.994632311431825,2022-06-15 14:02:35
34,Main,0,1,17,Other designer,True,r_BC,r_AD,True,True,False,Probably same,0,0.0,305.6,3016.0,8.011686729127847,2022-06-15 14:02:35
35,Main,0,1,18,Other designer,True,t_AB,t_AD,True,False,True,Probably same,1,3.141592653589793,305.6,2559.0,7.847371836159788,2022-06-15 14:02:35
36,Main,0,1,19,Other designer,True,b_BD,b_AD,True,False,False,Sure different,1,3.141592653589793,305.6,2861.0,7.95892649305011,2022-06-15 14:02:35
37,Main,0,1,20,Other designer,True,c_AA,c_AA,False,True,True,Sure different,0,0.0,305.6,3242.0,8.08394570229562,2022-06-15 14:02:35
38,Main,0,1,21,Other designer,True,q_AD,q_AB,True,False,True,Sure same,1,3.141592653589793,305.6,3042.0,8.020270472819238,2022-06-15 14:02:35
39,Main,0,1,22,Other designer,True,t_AD,t_BC,True,True,False,Probably same,0,0.0,305.6,2571.0,7.852050207265889,2022-06-15 14:02:35
40,Main,0,1,23,Other designer,True,n_AD,n_AB,True,False,True,Probably same,1,3.141592653589793,305.6,3287.0,8.097730573664219,2022-06-15 14:02:35
41,Main,0,1,24,Other designer,True,n_AA,n_AA,False,True,True,Probably same,1,3.141592653589793,305.6,2643.0,7.879669914604289,2022-06-15 14:02:35
42,Main,0,1,25,Other designer,True,q_AD,q_AD,True,True,True,Probably same,1,3.141592653589793,305.6,2592.0,7.860185057472165,2022-06-15 14:02:35
43,Main,0,1,26,Other designer,True,j_BD,j_AD,True,False,False,Sure different,1,3.141592653589793,305.6,3080.0,8.03268487596762,2022-06-15 14:02:35
44,Main,0,1,27,Other designer,True,n_DD,n_AA,False,True,False,Sure different,1,3.141592653589793,305.6,3153.0,8.056109659545061,2022-06-15 14:02:35
45,Main,0,1,28,Other designer,True,h_AB,h_AD,True,False,True,Probably different,0,0.0,305.6,3433.0,8.141189793457691,2022-06-15 14:02:35
46,Main,0,1,29,Other designer,True,a_AA,a_DD,False,True,False,Probably different,1,3.141592653589793,305.6,4214.0,8.346167594364134,2022-06-15 14:02:35
47,Main,0,1,30,Other designer,True,j_DD,j_AA,False,True,False,Sure different,1,3.141592653589793,305.6,2933.0,7.983781068977451,2022-06-15 14:02:35
48,Main,0,1,31,Other designer,True,e_AA,e_AA,False,True,True,Sure same,1,3.141592653589793,305.6,3211.0,8.074337694089515,2022-06-15 14:02:35
49,Main,0,1,32,Other designer,True,z_AB,z_AD,True,False,True,Sure same,1,3.141592653589793,305.6,2751.0,7.919719760924575,2022-06-15 14:02:35
50,Main,0,1,33,Other designer,True,j_AD,j_AD,True,True,True,Sure same,1,3.141592653589793,305.6,3053.0,8.023879992734878,2022-06-15 14:02:35
51,Main,0,1,34,Other designer,True,p_AA,p_AA,False,True,True,Probably same,1,3.141592653589793,305.6,2740.0,7.9157131993821155,2022-06-15 14:02:35
52,Main,0,1,35,Other designer,True,p_AD,p_BC,True,True,False,Probably different,1,3.141592653589793,305.6,2802.0,7.938088726896952,2022-06-15 14:02:35
53,Main,0,1,36,Other designer,True,p_AB,p_AD,True,False,True,Probably same,1,3.141592653589793,305.6,2862.0,7.959275960116396,2022-06-15 14:02:35
54,Main,0,1,37,Other designer,True,n_AD,n_BD,True,False,False,Sure same,0,0.0,305.6,3877.0,8.262816937670928,2022-06-15 14:02:35
55,Main,0,1,38,Other designer,True,a_AA,a_AA,False,True,True,Sure same,1,3.141592653589793,305.6,2366.0,7.768956044538332,2022-06-15 14:02:35
56,Main,0,1,39,Other designer,True,a_AD,a_BC,True,True,False,Sure same,0,0.0,305.6,2536.0,7.8383433155571165,2022-06-15 14:02:35
57,Main,0,1,40,Other designer,True,r_BD,r_AD,True,False,False,Sure same,0,0.0,305.6,2410.0,7.787382026484701,2022-06-15 14:02:35
58,Main,0,1,41,Other designer,True,e_AD,e_BD,True,False,False,Sure same,0,0.0,305.6,2787.0,7.932721027481948,2022-06-15 14:02:35
59,Main,0,1,42,Other designer,True,q_AD,q_BD,True,False,False,Sure same,0,0.0,305.6,2658.0,7.885329239273191,2022-06-15 14:02:35
60,Main,0,1,43,Other designer,True,r_AA,r_DD,False,True,False,Sure different,1,3.141592653589793,305.6,2897.0,7.9714309977693505,2022-06-15 14:02:35
61,Main,0,1,44,Other designer,True,e_DD,e_AA,False,True,False,Sure same,0,0.0,305.6,2886.0,7.9676267393338165,2022-06-15 14:02:35
62,Main,0,1,45,Other designer,True,t_AD,t_AD,True,True,True,Sure same,1,3.141592653589793,305.6,2741.0,7.916078096302786,2022-06-15 14:02:35
63,Main,0,1,46,Other designer,True,j_AB,j_AD,True,False,True,Sure same,1,3.141592653589793,305.6,2285.0,7.734121303328305,2022-06-15 14:02:35
64,Main,0,1,47,Other designer,True,h_AD,h_AD,True,True,True,Sure same,1,3.141592653589793,305.6,2496.0,7.822444729489319,2022-06-15 14:02:35
65,Main,0,1,48,Other designer,True,r_AB,r_AD,True,False,True,Sure same,1,3.141592653589793,305.6,2447.0,7.802618063442671,2022-06-15 14:02:35
66,Main,0,1,49,Other designer,True,b_AD,b_BC,True,True,False,Sure same,0,0.0,305.6,2699.0,7.900636613018005,2022-06-15 14:02:35
67,Main,0,1,50,Other designer,True,a_AD,a_BD,True,False,False,Sure same,0,0.0,305.6,2422.0,7.792348924113037,2022-06-15 14:02:35
68,Main,0,1,51,Other designer,True,e_AD,e_AB,True,False,True,Sure same,1,3.141592653589793,305.6,2480.0,7.8160138391590275,2022-06-15 14:02:35
69,Main,0,1,52,Other designer,True,p_AD,p_AD,True,True,True,Probably same,1,3.141592653589793,305.6,2580.0,7.855544677915663,2022-06-15 14:02:35
70,Main,0,1,53,Other designer,True,j_AD,j_BC,True,True,False,Sure different,1,3.141592653589793,305.6,2857.0,7.957527402230773,2022-06-15 14:02:35
71,Main,0,1,54,Other designer,True,a_AB,a_AD,True,False,True,Probably same,1,3.141592653589793,305.6,2871.0,7.962415680121064,2022-06-15 14:02:35
72,Main,0,1,55,Other designer,True,c_AD,c_BC,True,True,False,Probably different,1,3.141592653589793,305.6,2875.0,7.963807953231451,2022-06-15 14:02:35
73,Main,0,1,56,Other designer,True,e_AD,e_AD,True,True,True,Sure same,1,3.141592653589793,305.6,2923.0,7.980365765111246,2022-06-15 14:02:35
74,Main,0,1,57,Other designer,True,r_AA,r_AA,False,True,True,Probably same,1,3.141592653589793,305.6,2741.0,7.916078096302786,2022-06-15 14:02:35
75,Main,0,1,58,Other designer,True,a_AD,a_AD,True,True,True,Probably different,0,0.0,305.6,2962.0,7.993619994827744,2022-06-15 14:02:35
76,Main,0,1,59,Other designer,True,q_AA,q_AA,False,True,True,Probably same,1,3.141592653589793,305.6,2594.0,7.860956364876389,2022-06-15 14:02:35
77,Main,0,1,60,Other designer,True,q_DD,q_AA,False,True,False,Sure different,1,3.141592653589793,305.6,3092.0,8.036573409707312,2022-06-15 14:02:35
78,Main,0,1,61,Other designer,True,z_BD,z_AD,True,False,False,Sure different,1,3.141592653589793,305.6,2951.0,7.989899374942939,2022-06-15 14:02:35
79,Main,0,1,62,Other designer,True,h_AD,h_BD,True,False,False,Sure different,1,3.141592653589793,305.6,2783.0,7.931284761525891,2022-06-15 14:02:35
80,Main,0,1,63,Other designer,True,e_AD,e_BC,True,True,False,Probably different,1,3.141592653589793,305.6,2629.0,7.874358824729881,2022-06-15 14:02:35
81,Main,0,1,64,Other designer,True,c_DD,c_AA,False,True,False,Sure different,1,3.141592653589793,305.6,2859.0,7.958227192322312,2022-06-15 14:02:35
82,Main,0,1,65,Other designer,True,t_AA,t_DD,False,True,False,Sure different,1,3.141592653589793,305.6,2491.0,7.820439515262181,2022-06-15 14:02:35
83,Main,0,1,66,Other designer,True,n_AD,n_AD,True,True,True,Sure same,1,3.141592653589793,305.6,2804.0,7.938802248154481,2022-06-15 14:02:35
84,Main,0,1,67,Other designer,True,z_AA,z_AA,False,True,True,Sure same,1,3.141592653589793,305.6,2427.0,7.794411205726601,2022-06-15 14:02:35
85,Main,0,1,68,Other designer,True,z_BC,z_AD,True,True,False,Sure different,1,3.141592653589793,305.6,2418.0,7.790696031174738,2022-06-15 14:02:35
86,Main,0,1,69,Other designer,True,b_AD,b_AD,True,True,True,Probably same,1,3.141592653589793,305.6,2838.0,7.950854857719988,2022-06-15 14:02:35
87,Main,0,1,70,Other designer,True,z_DD,z_AA,False,True,False,Sure different,1,3.141592653589793,305.6,2401.0,7.783640596221253,2022-06-15 14:02:35
88,Main,0,1,71,Other designer,True,n_BC,n_AD,True,True,False,Probably same,0,0.0,305.6,3317.0,8.106816038947052,2022-06-15 14:02:35
89,Main,0,1,72,Other designer,True,b_AA,b_DD,False,True,False,Sure different,1,3.141592653589793,305.6,2688.0,7.89655270164304,2022-06-15 14:02:35
90,Main,0,0,19,Other designer,True,u_BD,u_AD,True,False,False,Sure different,1,3.141592653589793,725.0,3449.0,8.145839612936841,2022-06-15 14:02:35
91,Main,0,0,20,Other designer,True,i_AD,i_AD,True,True,True,Sure same,1,3.141592653589793,800.0,3847.0,8.255048902752295,2022-06-15 14:02:35
92,Main,1,0,1,Graphic designer,True,d_AD,d_BC,True,True,False,Probably different,1,3.141592653589793,800.0,7526.0,8.926118971153382,2022-06-15 13:54:17
93,Main,1,0,2,Graphic designer,True,u_AA,u_DD,False,True,False,Sure different,1,3.141592653589793,800.0,3591.0,8.186185994226083,2022-06-15 13:54:17
94,Main,1,0,3,Graphic designer,True,d_AA,d_DD,False,True,False,Sure different,1,3.141592653589793,800.0,3590.0,8.185907481482324,2022-06-15 13:54:17
95,Main,1,0,4,Graphic designer,True,d_AA,d_AA,False,True,True,Sure same,1,3.141592653589793,725.0,3725.0,8.22282213081366,2022-06-15 13:54:17
96,Main,1,0,5,Graphic designer,True,i_AA,i_DD,False,True,False,Sure different,1,3.141592653589793,650.0,3944.0,8.279950715722526,2022-06-15 13:54:17
97,Main,1,0,6,Graphic designer,True,d_AD,d_BC,True,True,False,Sure different,1,3.141592653589793,575.0,3885.0,8.264878262801748,2022-06-15 13:54:17
98,Main,1,0,7,Graphic designer,True,i_AD,i_BD,True,False,False,Probably same,0,0.0,500.0,3897.0,8.26796230533871,2022-06-15 13:54:17
99,Main,1,0,8,Graphic designer,True,d_AD,d_BD,True,False,False,Probably different,1,3.141592653589793,425.0,3616.0,8.193123721512068,2022-06-15 13:54:17
100,Main,1,0,9,Graphic designer,True,u_AD,u_AB,True,False,True,Probably same,1,3.141592653589793,350.0,3767.0,8.23403420769204,2022-06-15 13:54:17
101,Main,1,0,10,Graphic designer,True,d_AB,d_AD,True,False,True,Sure same,1,3.141592653589793,275.0,3290.0,8.098642843759418,2022-06-15 13:54:17
102,Main,1,0,11,Graphic designer,True,u_AD,u_BC,True,True,False,Probably same,0,0.0,200.0,2893.0,7.970049304976135,2022-06-15 13:54:17
103,Main,1,0,12,Graphic designer,True,u_AA,u_AA,False,True,True,Sure same,1,3.141592653589793,200.0,2777.0,7.9291264873067995,2022-06-15 13:54:17
104,Main,1,0,13,Graphic designer,True,i_AD,i_BC,True,True,False,Probably same,0,0.0,275.0,2691.0,7.897668150726906,2022-06-15 13:54:17
105,Main,1,0,14,Graphic designer,True,i_AD,i_AB,True,False,True,Sure same,1,3.141592653589793,350.0,-1322.0,,2022-06-15 13:54:17
106,Main,1,0,15,Graphic designer,True,u_AD,u_AD,True,True,True,Sure same,1,3.141592653589793,425.0,2717.0,7.907283609426348,2022-06-15 13:54:17
107,Main,1,0,16,Graphic designer,True,u_DD,u_AA,False,True,False,Sure different,1,3.141592653589793,500.0,3034.0,8.017637159908478,2022-06-15 13:54:17
108,Main,1,0,17,Graphic designer,True,d_AD,d_AD,True,True,True,Sure same,1,3.141592653589793,575.0,3162.0,8.058960017769417,2022-06-15 13:54:17
109,Main,1,0,18,Graphic designer,True,i_AA,i_AA,False,True,True,Sure same,1,3.141592653589793,650.0,3318.0,8.10711747075039,2022-06-15 13:54:17
110,Main,1,1,1,Graphic designer,True,z_AD,z_BC,True,True,False,Sure different,1,3.141592653589793,266.7,5178.0,8.552174160311482,2022-06-15 13:54:17
111,Main,1,1,2,Graphic designer,True,t_BD,t_AD,True,False,False,Sure same,0,0.0,266.7,3058.0,8.025516386489008,2022-06-15 13:54:17
112,Main,1,1,3,Graphic designer,True,q_AD,q_AB,True,False,True,Sure same,1,3.141592653589793,266.7,2677.0,7.892452043520352,2022-06-15 13:54:17
113,Main,1,1,4,Graphic designer,True,b_BC,b_AD,True,True,False,Sure different,1,3.141592653589793,266.7,2702.0,7.9017475185201445,2022-06-15 13:54:17
114,Main,1,1,5,Graphic designer,True,p_AB,p_AD,True,False,True,Sure same,1,3.141592653589793,266.7,2878.0,7.964850887447313,2022-06-15 13:54:17
115,Main,1,1,6,Graphic designer,True,z_AA,z_AA,False,True,True,Sure same,1,3.141592653589793,266.7,2543.0,7.841099765422119,2022-06-15 13:54:17
116,Main,1,1,7,Graphic designer,True,a_AD,a_AB,True,False,True,Sure same,1,3.141592653589793,266.7,2487.0,7.818832443803404,2022-06-15 13:54:17
117,Main,1,1,8,Graphic designer,True,e_DD,e_AA,False,True,False,Sure different,1,3.141592653589793,266.7,2646.0,7.880804344674901,2022-06-15 13:54:17
118,Main,1,1,9,Graphic designer,True,c_BD,c_AD,True,False,False,Sure same,0,0.0,266.7,3123.0,8.046549357283078,2022-06-15 13:54:17
119,Main,1,1,10,Graphic designer,True,a_AA,a_AA,False,True,True,Sure same,1,3.141592653589793,266.7,2430.0,7.795646536334594,2022-06-15 13:54:17
120,Main,1,1,11,Graphic designer,True,h_AD,h_BD,True,False,False,Sure different,1,3.141592653589793,266.7,3044.0,8.020927718981577,2022-06-15 13:54:17
121,Main,1,1,12,Graphic designer,True,e_AD,e_BC,True,True,False,Sure same,0,0.0,266.7,2703.0,7.902117546276448,2022-06-15 13:54:17
122,Main,1,1,13,Graphic designer,True,c_AD,c_AB,True,False,True,Sure same,1,3.141592653589793,266.7,2629.0,7.874358824729881,2022-06-15 13:54:17
123,Main,1,1,14,Graphic designer,True,z_BD,z_AD,True,False,False,Sure different,1,3.141592653589793,266.7,2972.0,7.99699040583765,2022-06-15 13:54:17
124,Main,1,1,15,Graphic designer,True,q_AD,q_BC,True,True,False,Probably different,1,3.141592653589793,266.7,3117.0,8.044626279767337,2022-06-15 13:54:17
125,Main,1,1,16,Graphic designer,True,r_AB,r_AD,True,False,True,Sure same,1,3.141592653589793,266.7,2771.0,7.9269635448629785,2022-06-15 13:54:17
126,Main,1,1,17,Graphic designer,True,j_AA,j_AA,False,True,True,Sure same,1,3.141592653589793,266.7,2772.0,7.927324360309794,2022-06-15 13:54:17
127,Main,1,1,18,Graphic designer,True,r_DD,r_AA,False,True,False,Sure different,1,3.141592653589793,266.7,2908.0,7.97522083865341,2022-06-15 13:54:17
128,Main,1,1,19,Graphic designer,True,e_AD,e_AD,True,True,True,Sure same,1,3.141592653589793,266.7,2734.0,7.913521017283895,2022-06-15 13:54:17
129,Main,1,1,20,Graphic designer,True,n_AD,n_BD,True,False,False,Sure different,1,3.141592653589793,266.7,3178.0,8.064007347096661,2022-06-15 13:54:17
130,Main,1,1,21,Graphic designer,True,j_AD,j_BC,True,True,False,Sure different,1,3.141592653589793,266.7,3163.0,8.059276223305648,2022-06-15 13:54:17
131,Main,1,1,22,Graphic designer,True,r_AD,r_AD,True,True,True,Sure same,1,3.141592653589793,266.7,3412.0,8.13505390861157,2022-06-15 13:54:17
132,Main,1,1,23,Graphic designer,True,h_AA,h_AA,False,True,True,Probably same,1,3.141592653589793,266.7,3111.0,8.042699496897637,2022-06-15 13:54:17
133,Main,1,1,24,Graphic designer,True,p_DD,p_AA,False,True,False,Sure different,1,3.141592653589793,266.7,2949.0,7.989221408815276,2022-06-15 13:54:17
134,Main,1,1,25,Graphic designer,True,r_AD,r_BD,True,False,False,Probably different,1,3.141592653589793,266.7,3320.0,8.107720061910534,2022-06-15 13:54:17
135,Main,1,1,26,Graphic designer,True,c_AA,c_AA,False,True,True,Sure same,1,3.141592653589793,266.7,2956.0,7.991592282068092,2022-06-15 13:54:17
136,Main,1,1,27,Graphic designer,True,e_AA,e_AA,False,True,True,Sure same,1,3.141592653589793,266.7,2489.0,7.819636302367592,2022-06-15 13:54:17
137,Main,1,1,28,Graphic designer,True,j_DD,j_AA,False,True,False,Sure different,1,3.141592653589793,266.7,3239.0,8.08301991917133,2022-06-15 13:54:17
138,Main,1,1,29,Graphic designer,True,b_BD,b_AD,True,False,False,Sure different,1,3.141592653589793,266.7,2864.0,7.9599745280805365,2022-06-15 13:54:17
139,Main,1,1,30,Graphic designer,True,r_AA,r_AA,False,True,True,Probably same,1,3.141592653589793,266.7,3230.0,8.080237416216702,2022-06-15 13:54:17
140,Main,1,1,31,Graphic designer,True,p_AD,p_BD,True,False,False,Sure different,1,3.141592653589793,266.7,2925.0,7.981049759665957,2022-06-15 13:54:17
141,Main,1,1,32,Graphic designer,True,b_AB,b_AD,True,False,True,Sure same,1,3.141592653589793,266.7,2908.0,7.97522083865341,2022-06-15 13:54:17
142,Main,1,1,33,Graphic designer,True,z_AD,z_AB,True,False,True,Sure same,1,3.141592653589793,266.7,2875.0,7.963807953231451,2022-06-15 13:54:17
143,Main,1,1,34,Graphic designer,True,t_AD,t_AB,True,False,True,Sure same,1,3.141592653589793,266.7,2387.0,7.77779262633883,2022-06-15 13:54:17
144,Main,1,1,35,Graphic designer,True,q_AD,q_AD,True,True,True,Sure same,1,3.141592653589793,266.7,2439.0,7.79934339821592,2022-06-15 13:54:17
145,Main,1,1,36,Graphic designer,True,e_AD,e_BD,True,False,False,Probably same,0,0.0,266.7,2921.0,7.979681302387741,2022-06-15 13:54:17
146,Main,1,1,37,Graphic designer,True,n_AD,n_AD,True,True,True,Sure same,1,3.141592653589793,266.7,2895.0,7.970740390007095,2022-06-15 13:54:17
147,Main,1,1,38,Graphic designer,True,b_AD,b_AD,True,True,True,Sure same,1,3.141592653589793,266.7,2606.0,7.8655717576847906,2022-06-15 13:54:17
148,Main,1,1,39,Graphic designer,True,c_BC,c_AD,True,True,False,Probably same,0,0.0,266.7,2778.0,7.9294865233142895,2022-06-15 13:54:17
149,Main,1,1,40,Graphic designer,True,j_AD,j_AD,True,True,True,Sure same,1,3.141592653589793,266.7,2916.0,7.977968093128549,2022-06-15 13:54:17
150,Main,1,1,41,Graphic designer,True,r_AD,r_BC,True,True,False,Probably same,0,0.0,266.7,2590.0,7.859413154693583,2022-06-15 13:54:17
151,Main,1,1,42,Graphic designer,True,j_AB,j_AD,True,False,True,Probably same,1,3.141592653589793,266.7,3200.0,8.070906088787819,2022-06-15 13:54:17
152,Main,1,1,43,Graphic designer,True,z_AD,z_AD,True,True,True,Probably different,0,0.0,266.7,3636.0,8.19863945529737,2022-06-15 13:54:17
153,Main,1,1,44,Graphic designer,True,q_AA,q_DD,False,True,False,Sure different,1,3.141592653589793,266.7,2729.0,7.911690520708339,2022-06-15 13:54:17
154,Main,1,1,45,Graphic designer,True,h_BC,h_AD,True,True,False,Sure different,1,3.141592653589793,266.7,2991.0,8.003363058629947,2022-06-15 13:54:17
155,Main,1,1,46,Graphic designer,True,a_AD,a_AD,True,True,True,Probably same,1,3.141592653589793,266.7,3471.0,8.152198015861787,2022-06-15 13:54:17
156,Main,1,1,47,Graphic designer,True,n_BC,n_AD,True,True,False,Sure different,1,3.141592653589793,266.7,3556.0,8.176391596633795,2022-06-15 13:54:17
157,Main,1,1,48,Graphic designer,True,n_AA,n_AA,False,True,True,Sure same,1,3.141592653589793,266.7,3295.0,8.100161446936607,2022-06-15 13:54:17
158,Main,1,1,49,Graphic designer,True,p_AA,p_AA,False,True,True,Probably same,1,3.141592653589793,266.7,3216.0,8.075893630298857,2022-06-15 13:54:17
159,Main,1,1,50,Graphic designer,True,t_AA,t_DD,False,True,False,Probably different,1,3.141592653589793,266.7,3184.0,8.065893546964274,2022-06-15 13:54:17
160,Main,1,1,51,Graphic designer,True,q_AA,q_AA,False,True,True,Probably same,1,3.141592653589793,266.7,3184.0,8.065893546964274,2022-06-15 13:54:17
161,Main,1,1,52,Graphic designer,True,c_AD,c_AD,True,True,True,Sure same,1,3.141592653589793,266.7,3038.0,8.018954683155718,2022-06-15 13:54:17
162,Main,1,1,53,Graphic designer,True,z_AA,z_DD,False,True,False,Sure different,1,3.141592653589793,266.7,2891.0,7.969357742016346,2022-06-15 13:54:17
163,Main,1,1,54,Graphic designer,True,t_AD,t_AD,True,True,True,Sure same,1,3.141592653589793,266.7,2813.0,7.9420068084898565,2022-06-15 13:54:17
164,Main,1,1,55,Graphic designer,True,h_AD,h_AD,True,True,True,Sure same,1,3.141592653589793,266.7,2657.0,7.884952945759814,2022-06-15 13:54:17
165,Main,1,1,56,Graphic designer,True,h_DD,h_AA,False,True,False,Sure different,1,3.141592653589793,266.7,2868.0,7.961370201719511,2022-06-15 13:54:17
166,Main,1,1,57,Graphic designer,True,e_AB,e_AD,True,False,True,Sure same,1,3.141592653589793,266.7,3321.0,8.108021221376747,2022-06-15 13:54:17
167,Main,1,1,58,Graphic designer,True,p_BC,p_AD,True,True,False,Sure different,1,3.141592653589793,266.7,2749.0,7.918992488165245,2022-06-15 13:54:17
168,Main,1,1,59,Graphic designer,True,j_AD,j_BD,True,False,False,Sure different,1,3.141592653589793,266.7,2768.0,7.92588031673756,2022-06-15 13:54:17
169,Main,1,1,60,Graphic designer,True,t_AA,t_AA,False,True,True,Sure same,1,3.141592653589793,266.7,2862.0,7.959275960116396,2022-06-15 13:54:17
170,Main,1,1,61,Graphic designer,True,a_AD,a_BC,True,True,False,Probably same,0,0.0,266.7,2848.0,7.954372272531867,2022-06-15 13:54:17
171,Main,1,1,62,Graphic designer,True,a_BD,a_AD,True,False,False,Probably same,0,0.0,266.7,2743.0,7.916807490937603,2022-06-15 13:54:17
172,Main,1,1,63,Graphic designer,True,a_DD,a_AA,False,True,False,Sure different,1,3.141592653589793,266.7,2779.0,7.929846429742503,2022-06-15 13:54:17
173,Main,1,1,64,Graphic designer,True,b_AA,b_AA,False,True,True,Probably same,1,3.141592653589793,266.7,3380.0,8.125630988477065,2022-06-15 13:54:17
174,Main,1,1,65,Graphic designer,True,n_AB,n_AD,True,False,True,Sure same,1,3.141592653589793,266.7,2687.0,7.8961806086154915,2022-06-15 13:54:17
175,Main,1,1,66,Graphic designer,True,b_DD,b_AA,False,True,False,Sure different,1,3.141592653589793,266.7,2827.0,7.946971357693591,2022-06-15 13:54:17
176,Main,1,1,67,Graphic designer,True,h_AD,h_AB,True,False,True,Sure same,1,3.141592653589793,266.7,2885.0,7.9672801789422,2022-06-15 13:54:17
177,Main,1,1,68,Graphic designer,True,t_AD,t_BC,True,True,False,Sure same,0,0.0,266.7,2444.0,7.8013913202914855,2022-06-15 13:54:17
178,Main,1,1,69,Graphic designer,True,q_BD,q_AD,True,False,False,Probably same,0,0.0,266.7,3074.0,8.03073492409854,2022-06-15 13:54:17
179,Main,1,1,70,Graphic designer,True,n_DD,n_AA,False,True,False,Sure different,1,3.141592653589793,266.7,3011.0,8.010027528481734,2022-06-15 13:54:17
180,Main,1,1,71,Graphic designer,True,c_AA,c_DD,False,True,False,Sure different,1,3.141592653589793,266.7,2617.0,7.869783902530146,2022-06-15 13:54:17
181,Main,1,1,72,Graphic designer,True,p_AD,p_AD,True,True,True,Sure same,1,3.141592653589793,266.7,3177.0,8.063692634269517,2022-06-15 13:54:17
182,Main,1,0,19,Graphic designer,True,u_AD,u_BD,True,False,False,Sure different,1,3.141592653589793,725.0,3582.0,8.183676582620658,2022-06-15 13:54:17
183,Main,1,0,20,Graphic designer,True,i_AD,i_AD,True,True,True,Sure same,1,3.141592653589793,800.0,3535.0,8.170468578330674,2022-06-15 13:54:17
184,Main,2,0,1,Graphic designer,True,d_BC,d_AD,True,True,False,Sure same,0,0.0,800.0,10059.0,9.216223035134337,2022-06-15 13:41:58
185,Main,2,0,2,Graphic designer,True,u_DD,u_AA,False,True,False,Sure different,1,3.141592653589793,800.0,3993.0,8.292298107063221,2022-06-15 13:41:58
186,Main,2,0,3,Graphic designer,True,d_DD,d_AA,False,True,False,Sure different,1,3.141592653589793,800.0,5218.0,8.559869465696673,2022-06-15 13:41:58
187,Main,2,0,4,Graphic designer,True,d_AA,d_AA,False,True,True,Sure same,1,3.141592653589793,725.0,5582.0,8.627302414096267,2022-06-15 13:41:58
188,Main,2,0,5,Graphic designer,True,i_AA,i_DD,False,True,False,Sure different,1,3.141592653589793,650.0,3222.0,8.07775756373692,2022-06-15 13:41:58
189,Main,2,0,6,Graphic designer,True,d_BC,d_AD,True,True,False,Probably different,1,3.141592653589793,575.0,3835.0,8.251924713801357,2022-06-15 13:41:58
190,Main,2,0,7,Graphic designer,True,i_AD,i_BD,True,False,False,Probably different,1,3.141592653589793,500.0,3328.0,8.1101268019411,2022-06-15 13:41:58
191,Main,2,0,8,Graphic designer,True,d_AD,d_BD,True,False,False,Sure different,1,3.141592653589793,425.0,3642.0,8.200288260287554,2022-06-15 13:41:58
192,Main,2,0,9,Graphic designer,True,u_AD,u_AB,True,False,True,Sure different,0,0.0,350.0,3676.0,8.209580483475577,2022-06-15 13:41:58
193,Main,2,0,10,Graphic designer,True,d_AB,d_AD,True,False,True,Probably different,0,0.0,275.0,9861.0,9.19634286233233,2022-06-15 13:41:58
194,Main,2,0,11,Graphic designer,True,u_AD,u_BC,True,True,False,Probably different,1,3.141592653589793,200.0,5228.0,8.561784074744113,2022-06-15 13:41:58
195,Main,2,0,12,Graphic designer,True,u_AA,u_AA,False,True,True,Sure same,1,3.141592653589793,200.0,2940.0,7.986164860332727,2022-06-15 13:41:58
196,Main,2,0,13,Graphic designer,True,i_BC,i_AD,True,True,False,Sure different,1,3.141592653589793,275.0,2968.0,7.995643604287271,2022-06-15 13:41:58
197,Main,2,0,14,Graphic designer,True,i_AD,i_AB,True,False,True,Sure different,0,0.0,350.0,2893.0,7.970049304976135,2022-06-15 13:41:58
198,Main,2,0,15,Graphic designer,True,u_AD,u_AD,True,True,True,Sure same,1,3.141592653589793,425.0,3282.0,8.096208271650037,2022-06-15 13:41:58
199,Main,2,0,16,Graphic designer,True,u_AA,u_DD,False,True,False,Sure different,1,3.141592653589793,500.0,2921.0,7.979681302387741,2022-06-15 13:41:58
200,Main,2,0,17,Graphic designer,True,d_AD,d_AD,True,True,True,Sure same,1,3.141592653589793,575.0,3394.0,8.129764445794171,2022-06-15 13:41:58
201,Main,2,0,18,Graphic designer,True,i_AA,i_AA,False,True,True,Probably same,1,3.141592653589793,650.0,3417.0,8.136518252115291,2022-06-15 13:41:58
202,Main,2,1,1,Graphic designer,True,p_AA,p_DD,False,True,False,Sure different,1,3.141592653589793,266.7,4981.0,8.513385953073284,2022-06-15 13:41:58
203,Main,2,1,2,Graphic designer,True,q_AD,q_AB,True,False,True,Probably different,0,0.0,266.7,3829.0,8.250358951477294,2022-06-15 13:41:58
204,Main,2,1,3,Graphic designer,True,q_DD,q_AA,False,True,False,Sure different,1,3.141592653589793,266.7,2594.0,7.860956364876389,2022-06-15 13:41:58
205,Main,2,1,4,Graphic designer,True,c_BD,c_AD,True,False,False,Sure same,0,0.0,266.7,2683.0,7.894690850425624,2022-06-15 13:41:58
206,Main,2,1,5,Graphic designer,True,j_AD,j_AD,True,True,True,Sure same,1,3.141592653589793,266.7,2517.0,7.830822995135316,2022-06-15 13:41:58
207,Main,2,1,6,Graphic designer,True,n_AD,n_AB,True,False,True,Probably different,0,0.0,266.7,3723.0,8.222285073872717,2022-06-15 13:41:58
208,Main,2,1,7,Graphic designer,True,z_AA,z_AA,False,True,True,Probably same,1,3.141592653589793,266.7,3981.0,8.289288323000317,2022-06-15 13:41:58
209,Main,2,1,8,Graphic designer,True,a_BD,a_AD,True,False,False,Sure same,0,0.0,266.7,2509.0,7.827639546366422,2022-06-15 13:41:58
210,Main,2,1,9,Graphic designer,True,e_AA,e_AA,False,True,True,Sure same,1,3.141592653589793,266.7,2421.0,7.791935956938058,2022-06-15 13:41:58
211,Main,2,1,10,Graphic designer,True,a_AD,a_AD,True,True,True,Sure same,1,3.141592653589793,266.7,2503.0,7.8252452914317745,2022-06-15 13:41:58
212,Main,2,1,11,Graphic designer,True,b_AD,b_AB,True,False,True,Probably different,0,0.0,266.7,3579.0,8.182838710766026,2022-06-15 13:41:58
213,Main,2,1,12,Graphic designer,True,p_AB,p_AD,True,False,True,Probably different,0,0.0,266.7,2960.0,7.992944547318106,2022-06-15 13:41:58
214,Main,2,1,13,Graphic designer,True,j_BC,j_AD,True,True,False,Sure different,1,3.141592653589793,266.7,2944.0,7.987524479848767,2022-06-15 13:41:58
215,Main,2,1,14,Graphic designer,True,q_AD,q_AD,True,True,True,Probably same,1,3.141592653589793,266.7,3149.0,8.054840221101024,2022-06-15 13:41:58
216,Main,2,1,15,Graphic designer,True,z_AD,z_AD,True,True,True,Sure same,1,3.141592653589793,266.7,3091.0,8.036249942132116,2022-06-15 13:41:58
217,Main,2,1,16,Graphic designer,True,r_AA,r_AA,False,True,True,Sure same,1,3.141592653589793,266.7,3246.0,8.085178748074537,2022-06-15 13:41:58
218,Main,2,1,17,Graphic designer,True,p_AD,p_AD,True,True,True,Sure same,1,3.141592653589793,266.7,2816.0,7.943072717277933,2022-06-15 13:41:58
219,Main,2,1,18,Graphic designer,True,h_AA,h_DD,False,True,False,Sure different,1,3.141592653589793,266.7,2887.0,7.967973179662935,2022-06-15 13:41:58
220,Main,2,1,19,Graphic designer,True,e_AB,e_AD,True,False,True,Sure same,1,3.141592653589793,266.7,3685.0,8.212025804623437,2022-06-15 13:41:58
221,Main,2,1,20,Graphic designer,True,b_AD,b_BD,True,False,False,Probably same,0,0.0,266.7,3100.0,8.039157390473237,2022-06-15 13:41:58
222,Main,2,1,21,Graphic designer,True,z_AB,z_AD,True,False,True,Sure same,1,3.141592653589793,266.7,3809.0,8.245121966478605,2022-06-15 13:41:58
223,Main,2,1,22,Graphic designer,True,h_BC,h_AD,True,True,False,Sure different,1,3.141592653589793,266.7,2609.0,7.866722285136729,2022-06-15 13:41:58
224,Main,2,1,23,Graphic designer,True,e_AD,e_AD,True,True,True,Sure same,1,3.141592653589793,266.7,2555.0,7.845807502637805,2022-06-15 13:41:58
225,Main,2,1,24,Graphic designer,True,a_AA,a_DD,False,True,False,Sure different,1,3.141592653589793,266.7,2572.0,7.85243908535751,2022-06-15 13:41:58
226,Main,2,1,25,Graphic designer,True,h_AD,h_BD,True,False,False,Sure different,1,3.141592653589793,266.7,2376.0,7.773173680482536,2022-06-15 13:41:58
227,Main,2,1,26,Graphic designer,True,r_AD,r_BD,True,False,False,Sure different,1,3.141592653589793,266.7,2496.0,7.822444729489319,2022-06-15 13:41:58
228,Main,2,1,27,Graphic designer,True,p_AD,p_BC,True,True,False,Sure different,1,3.141592653589793,266.7,2590.0,7.859413154693583,2022-06-15 13:41:58
229,Main,2,1,28,Graphic designer,True,c_AB,c_AD,True,False,True,Sure same,1,3.141592653589793,266.7,2442.0,7.80057265467065,2022-06-15 13:41:58
230,Main,2,1,29,Graphic designer,True,a_AA,a_AA,False,True,True,Probably same,1,3.141592653589793,266.7,3355.0,8.118207049405783,2022-06-15 13:41:58
231,Main,2,1,30,Graphic designer,True,e_AD,e_BC,True,True,False,Sure same,0,0.0,266.7,4065.0,8.310169021981912,2022-06-15 13:41:58
232,Main,2,1,31,Graphic designer,True,t_BC,t_AD,True,True,False,Sure different,1,3.141592653589793,266.7,2954.0,7.9909154630913255,2022-06-15 13:41:58
233,Main,2,1,32,Graphic designer,True,z_DD,z_AA,False,True,False,Sure different,1,3.141592653589793,266.7,2382.0,7.775695749915245,2022-06-15 13:41:58
234,Main,2,1,33,Graphic designer,True,h_AA,h_AA,False,True,True,Probably same,1,3.141592653589793,266.7,3201.0,8.071218539969863,2022-06-15 13:41:58
235,Main,2,1,34,Graphic designer,True,n_AD,n_AD,True,True,True,Sure same,1,3.141592653589793,266.7,2858.0,7.957877358489813,2022-06-15 13:41:58
236,Main,2,1,35,Graphic designer,True,n_BC,n_AD,True,True,False,Sure same,0,0.0,266.7,3351.0,8.11701408773731,2022-06-15 13:41:58
237,Main,2,1,36,Graphic designer,True,n_AA,n_AA,False,True,True,Sure same,1,3.141592653589793,266.7,3207.0,8.073091199693154,2022-06-15 13:41:58
238,Main,2,1,37,Graphic designer,True,b_AA,b_AA,False,True,True,Probably same,1,3.141592653589793,266.7,3280.0,8.09559870137819,2022-06-15 13:41:58
239,Main,2,1,38,Graphic designer,True,j_AB,j_AD,True,False,True,Sure different,0,0.0,266.7,2872.0,7.962763930168115,2022-06-15 13:41:58
240,Main,2,1,39,Graphic designer,True,a_AD,a_AB,True,False,True,Sure same,1,3.141592653589793,266.7,2965.0,7.994632311431825,2022-06-15 13:41:58
241,Main,2,1,40,Graphic designer,True,t_BD,t_AD,True,False,False,Sure different,1,3.141592653589793,266.7,3826.0,8.249575150000199,2022-06-15 13:41:58
242,Main,2,1,41,Graphic designer,True,t_AA,t_AA,False,True,True,Sure same,1,3.141592653589793,266.7,2535.0,7.837948916025283,2022-06-15 13:41:58
243,Main,2,1,42,Graphic designer,True,q_BD,q_AD,True,False,False,Sure same,0,0.0,266.7,2783.0,7.931284761525891,2022-06-15 13:41:58
244,Main,2,1,43,Graphic designer,True,t_AD,t_AD,True,True,True,Sure same,1,3.141592653589793,266.7,2702.0,7.9017475185201445,2022-06-15 13:41:58
245,Main,2,1,44,Graphic designer,True,p_AD,p_BD,True,False,False,Sure different,1,3.141592653589793,266.7,3151.0,8.055475141757274,2022-06-15 13:41:58
246,Main,2,1,45,Graphic designer,True,b_AD,b_AD,True,True,True,Sure same,1,3.141592653589793,266.7,2903.0,7.97349996402463,2022-06-15 13:41:58
247,Main,2,1,46,Graphic designer,True,b_BC,b_AD,True,True,False,Sure different,1,3.141592653589793,266.7,2446.0,7.802209316247118,2022-06-15 13:41:58
248,Main,2,1,47,Graphic designer,True,r_AD,r_AD,True,True,True,Probably same,1,3.141592653589793,266.7,3020.0,8.013012110368916,2022-06-15 13:41:58
249,Main,2,1,48,Graphic designer,True,t_AD,t_AB,True,False,True,Probably same,1,3.141592653589793,266.7,3235.0,8.081784206935001,2022-06-15 13:41:58
250,Main,2,1,49,Graphic designer,True,p_AA,p_AA,False,True,True,Sure same,1,3.141592653589793,266.7,2624.0,7.8724551500639794,2022-06-15 13:41:58
251,Main,2,1,50,Graphic designer,True,h_AD,h_AB,True,False,True,Sure same,1,3.141592653589793,266.7,3423.0,8.138272638530186,2022-06-15 13:41:58
252,Main,2,1,51,Graphic designer,True,r_BC,r_AD,True,True,False,Sure different,1,3.141592653589793,266.7,2921.0,7.979681302387741,2022-06-15 13:41:58
253,Main,2,1,52,Graphic designer,True,z_AD,z_BD,True,False,False,Sure different,1,3.141592653589793,266.7,2285.0,7.734121303328305,2022-06-15 13:41:58
254,Main,2,1,53,Graphic designer,True,n_AD,n_BD,True,False,False,Sure different,1,3.141592653589793,266.7,3136.0,8.0507033814703,2022-06-15 13:41:58
255,Main,2,1,54,Graphic designer,True,a_BC,a_AD,True,True,False,Sure same,0,0.0,266.7,2946.0,7.988203597022576,2022-06-15 13:41:58
256,Main,2,1,55,Graphic designer,True,c_AA,c_DD,False,True,False,Sure different,1,3.141592653589793,266.7,2494.0,7.821643126239982,2022-06-15 13:41:58
257,Main,2,1,56,Graphic designer,True,e_AA,e_DD,False,True,False,Sure different,1,3.141592653589793,266.7,2733.0,7.913155185928068,2022-06-15 13:41:58
258,Main,2,1,57,Graphic designer,True,c_AD,c_AD,True,True,True,Sure same,1,3.141592653589793,266.7,4116.0,8.32263709695394,2022-06-15 13:41:58
259,Main,2,1,58,Graphic designer,True,j_AA,j_DD,False,True,False,Sure different,1,3.141592653589793,266.7,2493.0,7.821242083523558,2022-06-15 13:41:58
260,Main,2,1,59,Graphic designer,True,e_AD,e_BD,True,False,False,Sure same,0,0.0,266.7,2757.0,7.921898411023797,2022-06-15 13:41:58
261,Main,2,1,60,Graphic designer,True,c_AA,c_AA,False,True,True,Sure same,1,3.141592653589793,266.7,3152.0,8.05579245097777,2022-06-15 13:41:58
262,Main,2,1,61,Graphic designer,True,r_DD,r_AA,False,True,False,Sure different,1,3.141592653589793,266.7,2328.0,7.752764808851328,2022-06-15 13:41:58
263,Main,2,1,62,Graphic designer,True,q_AA,q_AA,False,True,True,Sure different,0,0.0,266.7,2573.0,7.8528278122817445,2022-06-15 13:41:58
264,Main,2,1,63,Graphic designer,True,q_AD,q_BC,True,True,False,Sure different,1,3.141592653589793,266.7,2443.0,7.8009820712577405,2022-06-15 13:41:58
265,Main,2,1,64,Graphic designer,True,t_DD,t_AA,False,True,False,Sure different,1,3.141592653589793,266.7,2219.0,7.704811922932594,2022-06-15 13:41:58
266,Main,2,1,65,Graphic designer,True,r_AD,r_AB,True,False,True,Sure same,1,3.141592653589793,266.7,2675.0,7.891704659330107,2022-06-15 13:41:58
267,Main,2,1,66,Graphic designer,True,h_AD,h_AD,True,True,True,Sure same,1,3.141592653589793,266.7,2462.0,7.808729306744399,2022-06-15 13:41:58
268,Main,2,1,67,Graphic designer,True,b_AA,b_DD,False,True,False,Sure different,1,3.141592653589793,266.7,2423.0,7.792761720816526,2022-06-15 13:41:58
269,Main,2,1,68,Graphic designer,True,c_BC,c_AD,True,True,False,Sure same,0,0.0,266.7,2551.0,7.844240718141811,2022-06-15 13:41:58
270,Main,2,1,69,Graphic designer,True,j_AA,j_AA,False,True,True,Probably different,0,0.0,266.7,3480.0,8.15478757276852,2022-06-15 13:41:58
271,Main,2,1,70,Graphic designer,True,z_AD,z_BC,True,True,False,Sure different,1,3.141592653589793,266.7,2663.0,7.887208585813932,2022-06-15 13:41:58
272,Main,2,1,71,Graphic designer,True,j_AD,j_BD,True,False,False,Sure different,1,3.141592653589793,266.7,2478.0,7.815207062189088,2022-06-15 13:41:58
273,Main,2,1,72,Graphic designer,True,n_AA,n_DD,False,True,False,Sure different,1,3.141592653589793,266.7,2578.0,7.8547691834991324,2022-06-15 13:41:58
274,Main,2,0,19,Graphic designer,True,u_AD,u_BD,True,False,False,Sure different,1,3.141592653589793,725.0,3411.0,8.134760782418645,2022-06-15 13:41:58
275,Main,2,0,20,Graphic designer,True,i_AD,i_AD,True,True,True,Sure same,1,3.141592653589793,800.0,3810.0,8.245384468120747,2022-06-15 13:41:58
276,Main,3,0,1,Letter designer,True,d_AD,d_BC,True,True,False,Probably same,0,0.0,800.0,11914.0,9.385469458188632,2022-06-15 13:41:27
277,Main,3,0,2,Letter designer,True,u_AA,u_DD,False,True,False,Sure different,1,3.141592653589793,800.0,5204.0,8.557182839632397,2022-06-15 13:41:27
278,Main,3,0,3,Letter designer,True,d_AA,d_DD,False,True,False,Sure different,1,3.141592653589793,800.0,6410.0,8.765614549914716,2022-06-15 13:41:27
279,Main,3,0,4,Letter designer,True,d_AA,d_AA,False,True,True,Sure same,1,3.141592653589793,725.0,4575.0,8.428361977709622,2022-06-15 13:41:27
280,Main,3,0,5,Letter designer,True,i_AA,i_DD,False,True,False,Sure different,1,3.141592653589793,650.0,5181.0,8.552753366814787,2022-06-15 13:41:27
281,Main,3,0,6,Letter designer,True,d_AD,d_BC,True,True,False,Sure different,1,3.141592653589793,575.0,8684.0,9.069237530998182,2022-06-15 13:41:27
282,Main,3,0,7,Letter designer,True,i_AD,i_BD,True,False,False,Sure different,1,3.141592653589793,500.0,3634.0,8.198089248956116,2022-06-15 13:41:27
283,Main,3,0,8,Letter designer,True,d_AD,d_BD,True,False,False,Sure different,1,3.141592653589793,425.0,3226.0,8.078998258685154,2022-06-15 13:41:27
284,Main,3,0,9,Letter designer,True,u_AB,u_AD,True,False,True,Sure different,0,0.0,350.0,3288.0,8.098034756176071,2022-06-15 13:41:27
285,Main,3,0,10,Letter designer,True,d_AD,d_AB,True,False,True,Probably different,0,0.0,275.0,5173.0,8.551208070003515,2022-06-15 13:41:27
286,Main,3,0,11,Letter designer,True,u_BC,u_AD,True,True,False,Probably different,1,3.141592653589793,200.0,3280.0,8.09559870137819,2022-06-15 13:41:27
287,Main,3,0,12,Letter designer,True,u_AA,u_AA,False,True,True,Probably same,1,3.141592653589793,200.0,6368.0,8.75904072752422,2022-06-15 13:41:27
288,Main,3,0,13,Letter designer,True,i_BC,i_AD,True,True,False,Sure different,1,3.141592653589793,275.0,5020.0,8.521185212685776,2022-06-15 13:41:27
289,Main,3,0,14,Letter designer,True,i_AB,i_AD,True,False,True,Probably same,1,3.141592653589793,350.0,14269.0,9.565844630930576,2022-06-15 13:41:27
290,Main,3,0,15,Letter designer,True,u_AD,u_AD,True,True,True,Sure same,1,3.141592653589793,425.0,3698.0,8.21554741194707,2022-06-15 13:41:27
291,Main,3,0,16,Letter designer,True,u_AA,u_DD,False,True,False,Sure different,1,3.141592653589793,500.0,3886.0,8.265135629937385,2022-06-15 13:41:27
292,Main,3,0,17,Letter designer,True,d_AD,d_AD,True,True,True,Sure different,0,0.0,575.0,3470.0,8.151909872940905,2022-06-15 13:41:27
293,Main,3,0,18,Letter designer,True,i_AA,i_AA,False,True,True,Sure same,1,3.141592653589793,650.0,4188.0,8.339978571990427,2022-06-15 13:41:27
294,Main,3,1,1,Letter designer,True,a_AB,a_AD,True,False,True,Sure same,1,3.141592653589793,266.7,5913.0,8.68490859582083,2022-06-15 13:41:27
295,Main,3,1,2,Letter designer,True,z_AA,z_DD,False,True,False,Sure different,1,3.141592653589793,266.7,3663.0,8.206037762778815,2022-06-15 13:41:27
296,Main,3,1,3,Letter designer,True,h_BC,h_AD,True,True,False,Sure different,1,3.141592653589793,266.7,5217.0,8.559677803022392,2022-06-15 13:41:27
297,Main,3,1,4,Letter designer,True,z_AD,z_AD,True,True,True,Sure same,1,3.141592653589793,266.7,3441.0,8.14351740579748,2022-06-15 13:41:27
298,Main,3,1,5,Letter designer,True,r_AD,r_AD,True,True,True,Sure same,1,3.141592653589793,266.7,2888.0,7.968319500012717,2022-06-15 13:41:27
299,Main,3,1,6,Letter designer,True,z_AA,z_AA,False,True,True,Sure same,1,3.141592653589793,266.7,2669.0,7.889459149404524,2022-06-15 13:41:27
300,Main,3,1,7,Letter designer,True,c_AD,c_AD,True,True,True,Sure same,1,3.141592653589793,266.7,3040.0,8.019612794400267,2022-06-15 13:41:27
301,Main,3,1,8,Letter designer,True,n_DD,n_AA,False,True,False,Sure different,1,3.141592653589793,266.7,3153.0,8.056109659545061,2022-06-15 13:41:27
302,Main,3,1,9,Letter designer,True,c_AB,c_AD,True,False,True,Sure same,1,3.141592653589793,266.7,4286.0,8.363109176033522,2022-06-15 13:41:27
303,Main,3,1,10,Letter designer,True,b_AD,b_AD,True,True,True,Sure same,1,3.141592653589793,266.7,2430.0,7.795646536334594,2022-06-15 13:41:27
304,Main,3,1,11,Letter designer,True,j_AD,j_AB,True,False,True,Sure same,1,3.141592653589793,266.7,2751.0,7.919719760924575,2022-06-15 13:41:27
305,Main,3,1,12,Letter designer,True,p_AD,p_AD,True,True,True,Sure same,1,3.141592653589793,266.7,2778.0,7.9294865233142895,2022-06-15 13:41:27
306,Main,3,1,13,Letter designer,True,e_BC,e_AD,True,True,False,Sure same,0,0.0,266.7,2731.0,7.912423121473705,2022-06-15 13:41:27
307,Main,3,1,14,Letter designer,True,j_BC,j_AD,True,True,False,Sure different,1,3.141592653589793,266.7,3347.0,8.115819701211327,2022-06-15 13:41:27
308,Main,3,1,15,Letter designer,True,q_AB,q_AD,True,False,True,Sure same,1,3.141592653589793,266.7,3348.0,8.116118431609365,2022-06-15 13:41:27
309,Main,3,1,16,Letter designer,True,p_AD,p_BD,True,False,False,Sure different,1,3.141592653589793,266.7,3550.0,8.174702882469461,2022-06-15 13:41:27
310,Main,3,1,17,Letter designer,True,c_AD,c_BD,True,False,False,Sure same,0,0.0,266.7,3075.0,8.031060180240619,2022-06-15 13:41:27
311,Main,3,1,18,Letter designer,True,b_AD,b_AB,True,False,True,Sure same,1,3.141592653589793,266.7,7750.0,8.955448122347393,2022-06-15 13:41:27
312,Main,3,1,19,Letter designer,True,n_AD,n_AD,True,True,True,Probably different,0,0.0,266.7,9379.0,9.146228426508939,2022-06-15 13:41:27
313,Main,3,1,20,Letter designer,True,j_AA,j_DD,False,True,False,Sure different,1,3.141592653589793,266.7,5910.0,8.684401110400144,2022-06-15 13:41:27
314,Main,3,1,21,Letter designer,True,t_BC,t_AD,True,True,False,Sure same,0,0.0,266.7,3395.0,8.130059039992796,2022-06-15 13:41:27
315,Main,3,1,22,Letter designer,True,h_AD,h_AB,True,False,True,Sure same,1,3.141592653589793,266.7,3433.0,8.141189793457691,2022-06-15 13:41:27
316,Main,3,1,23,Letter designer,True,n_BD,n_AD,True,False,False,Probably different,1,3.141592653589793,266.7,4197.0,8.34212526333359,2022-06-15 13:41:27
317,Main,3,1,24,Letter designer,True,a_AD,a_AD,True,True,True,Sure same,1,3.141592653589793,266.7,3298.0,8.101071503119543,2022-06-15 13:41:27
318,Main,3,1,25,Letter designer,True,t_AD,t_BD,True,False,False,Sure same,0,0.0,266.7,2698.0,7.900266036767701,2022-06-15 13:41:27
319,Main,3,1,26,Letter designer,True,q_BC,q_AD,True,True,False,Sure same,0,0.0,266.7,3980.0,8.289037098278483,2022-06-15 13:41:27
320,Main,3,1,27,Letter designer,True,q_AD,q_AD,True,True,True,Sure same,1,3.141592653589793,266.7,2477.0,7.814803429489359,2022-06-15 13:41:27
321,Main,3,1,28,Letter designer,True,a_AD,a_BC,True,True,False,Sure same,0,0.0,266.7,3015.0,8.011355109161286,2022-06-15 13:41:27
322,Main,3,1,29,Letter designer,True,a_AA,a_AA,False,True,True,Sure same,1,3.141592653589793,266.7,2732.0,7.912789220690681,2022-06-15 13:41:27
323,Main,3,1,30,Letter designer,True,j_AA,j_AA,False,True,True,Sure same,1,3.141592653589793,266.7,3154.0,8.056426767522984,2022-06-15 13:41:27
324,Main,3,1,31,Letter designer,True,r_AD,r_AB,True,False,True,Sure same,1,3.141592653589793,266.7,2448.0,7.803026643632217,2022-06-15 13:41:27
325,Main,3,1,32,Letter designer,True,p_AB,p_AD,True,False,True,Sure same,1,3.141592653589793,266.7,2639.0,7.878155336503324,2022-06-15 13:41:27
326,Main,3,1,33,Letter designer,True,q_AA,q_DD,False,True,False,Sure different,1,3.141592653589793,266.7,4698.0,8.454892165218858,2022-06-15 13:41:27
327,Main,3,1,34,Letter designer,True,p_AA,p_AA,False,True,True,Sure same,1,3.141592653589793,266.7,4663.0,8.44741429680832,2022-06-15 13:41:27
328,Main,3,1,35,Letter designer,True,r_DD,r_AA,False,True,False,Sure different,1,3.141592653589793,266.7,3653.0,8.203304026795282,2022-06-15 13:41:27
329,Main,3,1,36,Letter designer,True,e_AD,e_AD,True,True,True,Sure same,1,3.141592653589793,266.7,3531.0,8.169336395928386,2022-06-15 13:41:27
330,Main,3,1,37,Letter designer,True,j_BD,j_AD,True,False,False,Sure different,1,3.141592653589793,266.7,3827.0,8.249836485425702,2022-06-15 13:41:27
331,Main,3,1,38,Letter designer,True,t_AD,t_AD,True,True,True,Sure same,1,3.141592653589793,266.7,3638.0,8.199189359078067,2022-06-15 13:41:27
332,Main,3,1,39,Letter designer,True,c_BC,c_AD,True,True,False,Sure same,0,0.0,266.7,2625.0,7.872836175025724,2022-06-15 13:41:27
333,Main,3,1,40,Letter designer,True,c_AA,c_AA,False,True,True,Sure same,1,3.141592653589793,266.7,2423.0,7.792761720816526,2022-06-15 13:41:27
334,Main,3,1,41,Letter designer,True,a_DD,a_AA,False,True,False,Sure different,1,3.141592653589793,266.7,3199.0,8.070593539949519,2022-06-15 13:41:27
335,Main,3,1,42,Letter designer,True,e_BD,e_AD,True,False,False,Sure same,0,0.0,266.7,3578.0,8.182559264068665,2022-06-15 13:41:27
336,Main,3,1,43,Letter designer,True,r_BD,r_AD,True,False,False,Sure same,0,0.0,266.7,3091.0,8.036249942132116,2022-06-15 13:41:27
337,Main,3,1,44,Letter designer,True,t_DD,t_AA,False,True,False,Sure different,1,3.141592653589793,266.7,3551.0,8.174984532943087,2022-06-15 13:41:27
338,Main,3,1,45,Letter designer,True,q_AD,q_BD,True,False,False,Sure same,0,0.0,266.7,3341.0,8.114025442356757,2022-06-15 13:41:27
339,Main,3,1,46,Letter designer,True,a_BD,a_AD,True,False,False,Sure different,1,3.141592653589793,266.7,3407.0,8.133587417660966,2022-06-15 13:41:27
340,Main,3,1,47,Letter designer,True,z_BC,z_AD,True,True,False,Sure different,1,3.141592653589793,266.7,3245.0,8.08487062913819,2022-06-15 13:41:27
341,Main,3,1,48,Letter designer,True,t_AA,t_AA,False,True,True,Sure same,1,3.141592653589793,266.7,3597.0,8.187855443695623,2022-06-15 13:41:27
342,Main,3,1,49,Letter designer,True,c_AA,c_DD,False,True,False,Sure different,1,3.141592653589793,266.7,3260.0,8.089482474360754,2022-06-15 13:41:27
343,Main,3,1,50,Letter designer,True,h_AA,h_DD,False,True,False,Sure different,1,3.141592653589793,266.7,3331.0,8.11102783819368,2022-06-15 13:41:27
344,Main,3,1,51,Letter designer,True,r_AD,r_BC,True,True,False,Probably different,1,3.141592653589793,266.7,5141.0,8.545002892055505,2022-06-15 13:41:27
345,Main,3,1,52,Letter designer,True,h_BD,h_AD,True,False,False,Sure different,1,3.141592653589793,266.7,3602.0,8.189244525735901,2022-06-15 13:41:27
346,Main,3,1,53,Letter designer,True,p_AA,p_DD,False,True,False,Sure different,1,3.141592653589793,266.7,3303.0,8.10258642539079,2022-06-15 13:41:27
347,Main,3,1,54,Letter designer,True,n_AD,n_AB,True,False,True,Probably same,1,3.141592653589793,266.7,4032.0,8.302017809751204,2022-06-15 13:41:27
348,Main,3,1,55,Letter designer,True,n_BC,n_AD,True,True,False,Probably same,0,0.0,266.7,3093.0,8.03689677268507,2022-06-15 13:41:27
349,Main,3,1,56,Letter designer,True,j_AD,j_AD,True,True,True,Sure same,1,3.141592653589793,266.7,2882.0,7.966239776559467,2022-06-15 13:41:27
350,Main,3,1,57,Letter designer,True,z_AD,z_BD,True,False,False,Sure different,1,3.141592653589793,266.7,3507.0,8.162516250140179,2022-06-15 13:41:27
351,Main,3,1,58,Letter designer,True,h_AA,h_AA,False,True,True,Sure same,1,3.141592653589793,266.7,3493.0,8.158516244806831,2022-06-15 13:41:27
352,Main,3,1,59,Letter designer,True,b_AD,b_BC,True,True,False,Sure different,1,3.141592653589793,266.7,3267.0,8.09162741160107,2022-06-15 13:41:27
353,Main,3,1,60,Letter designer,True,b_BD,b_AD,True,False,False,Sure different,1,3.141592653589793,266.7,3411.0,8.134760782418645,2022-06-15 13:41:27
354,Main,3,1,61,Letter designer,True,e_DD,e_AA,False,True,False,Sure different,1,3.141592653589793,266.7,4662.0,8.447199819595703,2022-06-15 13:41:27
355,Main,3,1,62,Letter designer,True,p_BC,p_AD,True,True,False,Probably different,1,3.141592653589793,266.7,5397.0,8.593598522618644,2022-06-15 13:41:27
356,Main,3,1,63,Letter designer,True,e_AD,e_AB,True,False,True,Sure same,1,3.141592653589793,266.7,3830.0,8.250620082174692,2022-06-15 13:41:27
357,Main,3,1,64,Letter designer,True,q_AA,q_AA,False,True,True,Sure same,1,3.141592653589793,266.7,3029.0,8.015987811027237,2022-06-15 13:41:27
358,Main,3,1,65,Letter designer,True,r_AA,r_AA,False,True,True,Sure same,1,3.141592653589793,266.7,2639.0,7.878155336503324,2022-06-15 13:41:27
359,Main,3,1,66,Letter designer,True,b_AA,b_DD,False,True,False,Sure different,1,3.141592653589793,266.7,3192.0,8.068402958569699,2022-06-15 13:41:27
360,Main,3,1,67,Letter designer,True,b_AA,b_AA,False,True,True,Sure same,1,3.141592653589793,266.7,3490.0,8.157657015196472,2022-06-15 13:41:27
361,Main,3,1,68,Letter designer,True,t_AD,t_AB,True,False,True,Sure same,1,3.141592653589793,266.7,2870.0,7.962067308753666,2022-06-15 13:41:27
362,Main,3,1,69,Letter designer,True,e_AA,e_AA,False,True,True,Sure same,1,3.141592653589793,266.7,2738.0,7.914983005848394,2022-06-15 13:41:27
363,Main,3,1,70,Letter designer,True,h_AD,h_AD,True,True,True,Sure same,1,3.141592653589793,266.7,2820.0,7.944492163932159,2022-06-15 13:41:27
364,Main,3,1,71,Letter designer,True,n_AA,n_AA,False,True,True,Sure same,1,3.141592653589793,266.7,3114.0,8.043663352393944,2022-06-15 13:41:27
365,Main,3,1,72,Letter designer,True,z_AB,z_AD,True,False,True,Sure same,1,3.141592653589793,266.7,2761.0,7.923348211930154,2022-06-15 13:41:27
366,Main,3,0,19,Letter designer,True,u_BD,u_AD,True,False,False,Sure different,1,3.141592653589793,725.0,4759.0,8.46779284112111,2022-06-15 13:41:27
367,Main,3,0,20,Letter designer,True,i_AD,i_AD,True,True,True,Sure same,1,3.141592653589793,800.0,4693.0,8.453827315794417,2022-06-15 13:41:27
368,Main,4,0,1,Graphic designer,True,d_BC,d_AD,True,True,False,Sure same,0,0.0,800.0,8479.0,9.045347797304004,2022-06-15 13:40:25
369,Main,4,0,2,Graphic designer,True,u_AA,u_DD,False,True,False,Sure different,1,3.141592653589793,800.0,4639.0,8.442254104751743,2022-06-15 13:40:25
370,Main,4,0,3,Graphic designer,True,d_AA,d_DD,False,True,False,Sure different,1,3.141592653589793,800.0,3796.0,8.241703159729818,2022-06-15 13:40:25
371,Main,4,0,4,Graphic designer,True,d_AA,d_AA,False,True,True,Sure same,1,3.141592653589793,725.0,3681.0,8.210939733379021,2022-06-15 13:40:25
372,Main,4,0,5,Graphic designer,True,i_DD,i_AA,False,True,False,Sure different,1,3.141592653589793,650.0,3351.0,8.11701408773731,2022-06-15 13:40:25
373,Main,4,0,6,Graphic designer,True,d_AD,d_BC,True,True,False,Sure different,1,3.141592653589793,575.0,3269.0,8.092239406724211,2022-06-15 13:40:25
374,Main,4,0,7,Graphic designer,True,i_BD,i_AD,True,False,False,Sure different,1,3.141592653589793,500.0,3199.0,8.070593539949519,2022-06-15 13:40:25
375,Main,4,0,8,Graphic designer,True,d_AD,d_BD,True,False,False,Sure different,1,3.141592653589793,425.0,3295.0,8.100161446936607,2022-06-15 13:40:25
376,Main,4,0,9,Graphic designer,True,u_AD,u_AB,True,False,True,Sure same,1,3.141592653589793,350.0,3222.0,8.07775756373692,2022-06-15 13:40:25
377,Main,4,0,10,Graphic designer,True,d_AD,d_AB,True,False,True,Sure same,1,3.141592653589793,275.0,2816.0,7.943072717277933,2022-06-15 13:40:25
378,Main,4,0,11,Graphic designer,True,u_AD,u_BC,True,True,False,Sure different,1,3.141592653589793,200.0,2542.0,7.8407064517494,2022-06-15 13:40:25
379,Main,4,0,12,Graphic designer,True,u_AA,u_AA,False,True,True,Sure same,1,3.141592653589793,200.0,2711.0,7.905072849498666,2022-06-15 13:40:25
380,Main,4,0,13,Graphic designer,True,i_BC,i_AD,True,True,False,Sure different,1,3.141592653589793,275.0,2614.0,7.868636894184167,2022-06-15 13:40:25
381,Main,4,0,14,Graphic designer,True,i_AB,i_AD,True,False,True,Sure different,0,0.0,350.0,2751.0,7.919719760924575,2022-06-15 13:40:25
382,Main,4,0,15,Graphic designer,True,u_AD,u_AD,True,True,True,Sure different,0,0.0,425.0,2765.0,7.9247959139564355,2022-06-15 13:40:25
383,Main,4,0,16,Graphic designer,True,u_AA,u_DD,False,True,False,Sure different,1,3.141592653589793,500.0,3167.0,8.06054004653864,2022-06-15 13:40:25
384,Main,4,0,17,Graphic designer,True,d_AD,d_AD,True,True,True,Sure same,1,3.141592653589793,575.0,3253.0,8.087332926473351,2022-06-15 13:40:25
385,Main,4,0,18,Graphic designer,True,i_AA,i_AA,False,True,True,Sure same,1,3.141592653589793,650.0,3436.0,8.142063283104147,2022-06-15 13:40:25
386,Main,4,1,1,Graphic designer,True,n_BC,n_AD,True,True,False,Sure different,1,3.141592653589793,227.8,5474.0,8.607764889600624,2022-06-15 13:40:25
387,Main,4,1,2,Graphic designer,True,a_AD,a_AB,True,False,True,Sure same,1,3.141592653589793,227.8,3869.0,8.260751354700513,2022-06-15 13:40:25
388,Main,4,1,3,Graphic designer,True,h_DD,h_AA,False,True,False,Sure different,1,3.141592653589793,227.8,2692.0,7.898039690764619,2022-06-15 13:40:25
389,Main,4,1,4,Graphic designer,True,r_AB,r_AD,True,False,True,Sure same,1,3.141592653589793,227.8,3207.0,8.073091199693154,2022-06-15 13:40:25
390,Main,4,1,5,Graphic designer,True,z_AD,z_BC,True,True,False,Sure different,1,3.141592653589793,227.8,2749.0,7.918992488165245,2022-06-15 13:40:25
391,Main,4,1,6,Graphic designer,True,n_AD,n_AD,True,True,True,Sure same,1,3.141592653589793,227.8,3033.0,8.017307507688582,2022-06-15 13:40:25
392,Main,4,1,7,Graphic designer,True,e_BC,e_AD,True,True,False,Sure same,0,0.0,227.8,3575.0,8.181720455128108,2022-06-15 13:40:25
393,Main,4,1,8,Graphic designer,True,r_AD,r_AD,True,True,True,Sure same,1,3.141592653589793,227.8,2781.0,7.930565854233965,2022-06-15 13:40:25
394,Main,4,1,9,Graphic designer,True,b_AD,b_BD,True,False,False,Sure different,1,3.141592653589793,227.8,2679.0,7.893198869544609,2022-06-15 13:40:25
395,Main,4,1,10,Graphic designer,True,a_DD,a_AA,False,True,False,Sure different,1,3.141592653589793,227.8,2833.0,7.949091499830517,2022-06-15 13:40:25
396,Main,4,1,11,Graphic designer,True,t_AA,t_AA,False,True,True,Sure same,1,3.141592653589793,227.8,3354.0,8.117908942383155,2022-06-15 13:40:25
397,Main,4,1,12,Graphic designer,True,q_AD,q_BC,True,True,False,Sure different,1,3.141592653589793,227.8,2879.0,7.965198290612176,2022-06-15 13:40:25
398,Main,4,1,13,Graphic designer,True,n_AB,n_AD,True,False,True,Sure same,1,3.141592653589793,227.8,3152.0,8.05579245097777,2022-06-15 13:40:25
399,Main,4,1,14,Graphic designer,True,p_AB,p_AD,True,False,True,Sure same,1,3.141592653589793,227.8,2764.0,7.92443418488756,2022-06-15 13:40:25
400,Main,4,1,15,Graphic designer,True,n_AD,n_BD,True,False,False,Sure different,1,3.141592653589793,227.8,3270.0,8.0925452638913,2022-06-15 13:40:25
401,Main,4,1,16,Graphic designer,True,h_AD,h_BC,True,True,False,Sure different,1,3.141592653589793,227.8,2516.0,7.830425617820331,2022-06-15 13:40:25
402,Main,4,1,17,Graphic designer,True,a_BD,a_AD,True,False,False,Sure different,1,3.141592653589793,227.8,2904.0,7.973844375944687,2022-06-15 13:40:25
403,Main,4,1,18,Graphic designer,True,q_AA,q_AA,False,True,True,Sure same,1,3.141592653589793,227.8,3580.0,8.183118079394745,2022-06-15 13:40:25
404,Main,4,1,19,Graphic designer,True,c_BD,c_AD,True,False,False,Sure different,1,3.141592653589793,227.8,3071.0,8.029758520440822,2022-06-15 13:40:25
405,Main,4,1,20,Graphic designer,True,j_AD,j_AD,True,True,True,Sure same,1,3.141592653589793,227.8,3246.0,8.085178748074537,2022-06-15 13:40:25
406,Main,4,1,21,Graphic designer,True,p_AA,p_AA,False,True,True,Sure same,1,3.141592653589793,227.8,2702.0,7.9017475185201445,2022-06-15 13:40:25
407,Main,4,1,22,Graphic designer,True,j_AB,j_AD,True,False,True,Sure same,1,3.141592653589793,227.8,2553.0,7.845024417241484,2022-06-15 13:40:25
408,Main,4,1,23,Graphic designer,True,b_AD,b_BC,True,True,False,Sure different,1,3.141592653589793,227.8,2571.0,7.852050207265889,2022-06-15 13:40:25
409,Main,4,1,24,Graphic designer,True,z_AD,z_BD,True,False,False,Sure different,1,3.141592653589793,227.8,2547.0,7.842671474979457,2022-06-15 13:40:25
410,Main,4,1,25,Graphic designer,True,j_BD,j_AD,True,False,False,Sure different,1,3.141592653589793,227.8,4249.0,8.354438940114811,2022-06-15 13:40:25
411,Main,4,1,26,Graphic designer,True,a_AD,a_AD,True,True,True,Sure same,1,3.141592653589793,227.8,2746.0,7.917900586327916,2022-06-15 13:40:25
412,Main,4,1,27,Graphic designer,True,r_AA,r_DD,False,True,False,Sure different,1,3.141592653589793,227.8,3251.0,8.086717920303906,2022-06-15 13:40:25
413,Main,4,1,28,Graphic designer,True,n_AA,n_AA,False,True,True,Sure same,1,3.141592653589793,227.8,3199.0,8.070593539949519,2022-06-15 13:40:25
414,Main,4,1,29,Graphic designer,True,r_AD,r_BC,True,True,False,Sure same,0,0.0,227.8,3067.0,8.028455164114252,2022-06-15 13:40:25
415,Main,4,1,30,Graphic designer,True,e_AD,e_AD,True,True,True,Sure same,1,3.141592653589793,227.8,3303.0,8.10258642539079,2022-06-15 13:40:25
416,Main,4,1,31,Graphic designer,True,q_BD,q_AD,True,False,False,Sure same,0,0.0,227.8,3331.0,8.11102783819368,2022-06-15 13:40:25
417,Main,4,1,32,Graphic designer,True,z_AD,z_AD,True,True,True,Sure same,1,3.141592653589793,227.8,2701.0,7.901377353792616,2022-06-15 13:40:25
418,Main,4,1,33,Graphic designer,True,n_AA,n_DD,False,True,False,Sure different,1,3.141592653589793,227.8,2722.0,7.909122183211411,2022-06-15 13:40:25
419,Main,4,1,34,Graphic designer,True,r_AA,r_AA,False,True,True,Sure same,1,3.141592653589793,227.8,2868.0,7.961370201719511,2022-06-15 13:40:25
420,Main,4,1,35,Graphic designer,True,c_DD,c_AA,False,True,False,Sure different,1,3.141592653589793,227.8,2879.0,7.965198290612176,2022-06-15 13:40:25
421,Main,4,1,36,Graphic designer,True,j_DD,j_AA,False,True,False,Sure different,1,3.141592653589793,227.8,3015.0,8.011355109161286,2022-06-15 13:40:25
422,Main,4,1,37,Graphic designer,True,q_AB,q_AD,True,False,True,Sure same,1,3.141592653589793,227.8,3233.0,8.081165777725433,2022-06-15 13:40:25
423,Main,4,1,38,Graphic designer,True,c_AD,c_AD,True,True,True,Sure same,1,3.141592653589793,227.8,5056.0,8.528330935826693,2022-06-15 13:40:25
424,Main,4,1,39,Graphic designer,True,p_AD,p_BD,True,False,False,Sure different,1,3.141592653589793,227.8,3015.0,8.011355109161286,2022-06-15 13:40:25
425,Main,4,1,40,Graphic designer,True,p_AD,p_AD,True,True,True,Sure same,1,3.141592653589793,227.8,2879.0,7.965198290612176,2022-06-15 13:40:25
426,Main,4,1,41,Graphic designer,True,e_AA,e_AA,False,True,True,Sure same,1,3.141592653589793,227.8,2585.0,7.85748078694253,2022-06-15 13:40:25
427,Main,4,1,42,Graphic designer,True,t_AD,t_AD,True,True,True,Sure same,1,3.141592653589793,227.8,3003.0,8.00736706798333,2022-06-15 13:40:25
428,Main,4,1,43,Graphic designer,True,p_AA,p_DD,False,True,False,Sure different,1,3.141592653589793,227.8,2732.0,7.912789220690681,2022-06-15 13:40:25
429,Main,4,1,44,Graphic designer,True,h_AD,h_AD,True,True,True,Sure same,1,3.141592653589793,227.8,2765.0,7.9247959139564355,2022-06-15 13:40:25
430,Main,4,1,45,Graphic designer,True,e_AD,e_AB,True,False,True,Sure same,1,3.141592653589793,227.8,2518.0,7.831220214604293,2022-06-15 13:40:25
431,Main,4,1,46,Graphic designer,True,z_AD,z_AB,True,False,True,Sure same,1,3.141592653589793,227.8,2625.0,7.872836175025724,2022-06-15 13:40:25
432,Main,4,1,47,Graphic designer,True,b_AB,b_AD,True,False,True,Sure same,1,3.141592653589793,227.8,2798.0,7.936660155225426,2022-06-15 13:40:25
433,Main,4,1,48,Graphic designer,True,q_DD,q_AA,False,True,False,Probably different,1,3.141592653589793,227.8,7786.0,8.960082528170402,2022-06-15 13:40:25
434,Main,4,1,49,Graphic designer,True,e_AA,e_DD,False,True,False,Sure different,1,3.141592653589793,227.8,3261.0,8.089789175789319,2022-06-15 13:40:25
435,Main,4,1,50,Graphic designer,True,h_AB,h_AD,True,False,True,Sure same,1,3.141592653589793,227.8,6100.0,8.716044050161402,2022-06-15 13:40:25
436,Main,4,1,51,Graphic designer,True,c_AA,c_AA,False,True,True,Sure same,1,3.141592653589793,227.8,3047.0,8.021912778985708,2022-06-15 13:40:25
437,Main,4,1,52,Graphic designer,True,c_BC,c_AD,True,True,False,Sure different,1,3.141592653589793,227.8,2918.0,7.978653729082731,2022-06-15 13:40:25
438,Main,4,1,53,Graphic designer,True,t_AD,t_BC,True,True,False,Sure same,0,0.0,227.8,4138.0,8.327967858305488,2022-06-15 13:40:25
439,Main,4,1,54,Graphic designer,True,j_AD,j_BC,True,True,False,Sure same,0,0.0,227.8,3947.0,8.280711075662847,2022-06-15 13:40:25
440,Main,4,1,55,Graphic designer,True,q_AD,q_AD,True,True,True,Sure same,1,3.141592653589793,227.8,3349.0,8.116417072794205,2022-06-15 13:40:25
441,Main,4,1,56,Graphic designer,True,a_AD,a_BC,True,True,False,Sure same,0,0.0,227.8,2587.0,7.8582541821860294,2022-06-15 13:40:25
442,Main,4,1,57,Graphic designer,True,c_AB,c_AD,True,False,True,Sure same,1,3.141592653589793,227.8,2867.0,7.96102146588337,2022-06-15 13:40:25
443,Main,4,1,58,Graphic designer,True,z_DD,z_AA,False,True,False,Sure different,1,3.141592653589793,227.8,4531.0,8.418697944667139,2022-06-15 13:40:25
444,Main,4,1,59,Graphic designer,True,e_AD,e_BD,True,False,False,Sure same,0,0.0,227.8,5735.0,8.65434302956347,2022-06-15 13:40:25
445,Main,4,1,60,Graphic designer,True,b_AD,b_AD,True,True,True,Sure same,1,3.141592653589793,227.8,2891.0,7.969357742016346,2022-06-15 13:40:25
446,Main,4,1,61,Graphic designer,True,t_BD,t_AD,True,False,False,Sure same,0,0.0,227.8,2558.0,7.846980982138788,2022-06-15 13:40:25
447,Main,4,1,62,Graphic designer,True,t_AA,t_DD,False,True,False,Sure different,1,3.141592653589793,227.8,2917.0,7.978310969867722,2022-06-15 13:40:25
448,Main,4,1,63,Graphic designer,True,h_AA,h_AA,False,True,True,Sure same,1,3.141592653589793,227.8,3434.0,8.141481041457421,2022-06-15 13:40:25
449,Main,4,1,64,Graphic designer,True,p_AD,p_BC,True,True,False,Sure different,1,3.141592653589793,227.8,2719.0,7.908019444632471,2022-06-15 13:40:25
450,Main,4,1,65,Graphic designer,True,h_BD,h_AD,True,False,False,Sure different,1,3.141592653589793,227.8,3463.0,8.149890544402423,2022-06-15 13:40:25
451,Main,4,1,66,Graphic designer,True,z_AA,z_AA,False,True,True,Sure same,1,3.141592653589793,227.8,2768.0,7.92588031673756,2022-06-15 13:40:25
452,Main,4,1,67,Graphic designer,True,b_AA,b_DD,False,True,False,Sure different,1,3.141592653589793,227.8,2515.0,7.83002808253384,2022-06-15 13:40:25
453,Main,4,1,68,Graphic designer,True,a_AA,a_AA,False,True,True,Sure same,1,3.141592653589793,227.8,3654.0,8.203577736937952,2022-06-15 13:40:25
454,Main,4,1,69,Graphic designer,True,j_AA,j_AA,False,True,True,Sure same,1,3.141592653589793,227.8,2584.0,7.857093864902493,2022-06-15 13:40:25
455,Main,4,1,70,Graphic designer,True,r_AD,r_BD,True,False,False,Sure same,0,0.0,227.8,2820.0,7.944492163932159,2022-06-15 13:40:25
456,Main,4,1,71,Graphic designer,True,b_AA,b_AA,False,True,True,Sure same,1,3.141592653589793,227.8,2493.0,7.821242083523558,2022-06-15 13:40:25
457,Main,4,1,72,Graphic designer,True,t_AB,t_AD,True,False,True,Sure same,1,3.141592653589793,227.8,2555.0,7.845807502637805,2022-06-15 13:40:25
458,Main,4,0,19,Graphic designer,True,u_BD,u_AD,True,False,False,Sure different,1,3.141592653589793,725.0,3415.0,8.13593277200489,2022-06-15 13:40:25
459,Main,4,0,20,Graphic designer,True,i_AD,i_AD,True,True,True,Sure same,1,3.141592653589793,800.0,3749.0,8.229244416735913,2022-06-15 13:40:25
460,Main,5,0,1,Graphic designer,True,d_AD,d_BC,True,True,False,Sure different,1,3.141592653589793,800.0,14515.0,9.58293787645873,2022-06-15 13:39:31
461,Main,5,0,2,Graphic designer,True,u_AA,u_DD,False,True,False,Sure different,1,3.141592653589793,800.0,6589.0,8.793156870913819,2022-06-15 13:39:31
462,Main,5,0,3,Graphic designer,True,d_AA,d_DD,False,True,False,Sure different,1,3.141592653589793,800.0,3769.0,8.234564993267135,2022-06-15 13:39:31
463,Main,5,0,4,Graphic designer,True,d_AA,d_AA,False,True,True,Probably same,1,3.141592653589793,725.0,4504.0,8.412721169819527,2022-06-15 13:39:31
464,Main,5,0,5,Graphic designer,True,i_AA,i_DD,False,True,False,Sure different,1,3.141592653589793,650.0,3720.0,8.221478947267192,2022-06-15 13:39:31
465,Main,5,0,6,Graphic designer,True,d_AD,d_BC,True,True,False,Probably same,0,0.0,575.0,4079.0,8.313607139317558,2022-06-15 13:39:31
466,Main,5,0,7,Graphic designer,True,i_AD,i_BD,True,False,False,Sure same,0,0.0,500.0,3431.0,8.14060704285845,2022-06-15 13:39:31
467,Main,5,0,8,Graphic designer,True,d_AD,d_BD,True,False,False,Probably different,1,3.141592653589793,425.0,4650.0,8.444622498581403,2022-06-15 13:39:31
468,Main,5,0,9,Graphic designer,True,u_AD,u_AB,True,False,True,Probably same,1,3.141592653589793,350.0,3469.0,8.15162164696975,2022-06-15 13:39:31
469,Main,5,0,10,Graphic designer,True,d_AD,d_AB,True,False,True,Probably same,1,3.141592653589793,275.0,4319.0,8.3707791729607,2022-06-15 13:39:31
470,Main,5,0,11,Graphic designer,True,u_BC,u_AD,True,True,False,Sure different,1,3.141592653589793,200.0,3269.0,8.092239406724211,2022-06-15 13:39:31
471,Main,5,0,12,Graphic designer,True,u_AA,u_AA,False,True,True,Probably same,1,3.141592653589793,200.0,3731.0,8.224431573221159,2022-06-15 13:39:31
472,Main,5,0,13,Graphic designer,True,i_AD,i_BC,True,True,False,Probably same,0,0.0,275.0,3871.0,8.261268150577648,2022-06-15 13:39:31
473,Main,5,0,14,Graphic designer,True,i_AD,i_AB,True,False,True,Probably same,1,3.141592653589793,350.0,4080.0,8.313852267398207,2022-06-15 13:39:31
474,Main,5,0,15,Graphic designer,True,u_AD,u_AD,True,True,True,Probably same,1,3.141592653589793,425.0,3780.0,8.237479288613633,2022-06-15 13:39:31
475,Main,5,0,16,Graphic designer,True,u_DD,u_AA,False,True,False,Sure different,1,3.141592653589793,500.0,6091.0,8.714567550836485,2022-06-15 13:39:31
476,Main,5,0,17,Graphic designer,True,d_AD,d_AD,True,True,True,Probably different,0,0.0,575.0,4166.0,8.334711621820917,2022-06-15 13:39:31
477,Main,5,0,18,Graphic designer,True,i_AA,i_AA,False,True,True,Probably same,1,3.141592653589793,650.0,3833.0,8.251403065380556,2022-06-15 13:39:31
478,Main,5,1,1,Graphic designer,True,t_AA,t_DD,False,True,False,Sure different,1,3.141592653589793,305.6,5935.0,8.688622307043769,2022-06-15 13:39:31
479,Main,5,1,2,Graphic designer,True,p_AD,p_AD,True,True,True,Probably same,1,3.141592653589793,305.6,3251.0,8.086717920303906,2022-06-15 13:39:31
480,Main,5,1,3,Graphic designer,True,c_DD,c_AA,False,True,False,Sure different,1,3.141592653589793,305.6,3267.0,8.09162741160107,2022-06-15 13:39:31
481,Main,5,1,4,Graphic designer,True,j_AD,j_AD,True,True,True,Probably same,1,3.141592653589793,305.6,3444.0,8.144388865547622,2022-06-15 13:39:31
482,Main,5,1,5,Graphic designer,True,a_AD,a_AB,True,False,True,Probably different,0,0.0,305.6,3569.0,8.18004072349016,2022-06-15 13:39:31
483,Main,5,1,6,Graphic designer,True,q_AD,q_BC,True,True,False,Probably different,1,3.141592653589793,305.6,3589.0,8.185628891147607,2022-06-15 13:39:31
484,Main,5,1,7,Graphic designer,True,q_BD,q_AD,True,False,False,Probably different,1,3.141592653589793,305.6,3104.0,8.04044688130311,2022-06-15 13:39:31
485,Main,5,1,8,Graphic designer,True,a_AA,a_DD,False,True,False,Sure different,1,3.141592653589793,305.6,5528.0,8.617581365447506,2022-06-15 13:39:31
486,Main,5,1,9,Graphic designer,True,z_AB,z_AD,True,False,True,Probably same,1,3.141592653589793,305.6,3853.0,8.256607344626158,2022-06-15 13:39:31
487,Main,5,1,10,Graphic designer,True,z_AA,z_AA,False,True,True,Probably same,1,3.141592653589793,305.6,3416.0,8.13622555490846,2022-06-15 13:39:31
488,Main,5,1,11,Graphic designer,True,c_AB,c_AD,True,False,True,Probably same,1,3.141592653589793,305.6,3119.0,8.045267716607803,2022-06-15 13:39:31
489,Main,5,1,12,Graphic designer,True,h_AD,h_BD,True,False,False,Probably different,1,3.141592653589793,305.6,3321.0,8.108021221376747,2022-06-15 13:39:31
490,Main,5,1,13,Graphic designer,True,b_AA,b_DD,False,True,False,Sure different,1,3.141592653589793,305.6,3181.0,8.064950891749143,2022-06-15 13:39:31
491,Main,5,1,14,Graphic designer,True,h_BC,h_AD,True,True,False,Sure different,1,3.141592653589793,305.6,3102.0,8.039802343736485,2022-06-15 13:39:31
492,Main,5,1,15,Graphic designer,True,b_AA,b_AA,False,True,True,Probably same,1,3.141592653589793,305.6,3396.0,8.130353547431238,2022-06-15 13:39:31
493,Main,5,1,16,Graphic designer,True,q_AD,q_AD,True,True,True,Probably same,1,3.141592653589793,305.6,3083.0,8.03365842788615,2022-06-15 13:39:31
494,Main,5,1,17,Graphic designer,True,n_AA,n_DD,False,True,False,Sure different,1,3.141592653589793,305.6,3136.0,8.0507033814703,2022-06-15 13:39:31
495,Main,5,1,18,Graphic designer,True,p_AD,p_AB,True,False,True,Probably same,1,3.141592653589793,305.6,3350.0,8.116715624819111,2022-06-15 13:39:31
496,Main,5,1,19,Graphic designer,True,n_AB,n_AD,True,False,True,Probably same,1,3.141592653589793,305.6,3132.0,8.049427057110695,2022-06-15 13:39:31
497,Main,5,1,20,Graphic designer,True,n_AD,n_BC,True,True,False,Probably different,1,3.141592653589793,305.6,3491.0,8.157943507105037,2022-06-15 13:39:31
498,Main,5,1,21,Graphic designer,True,j_DD,j_AA,False,True,False,Sure different,1,3.141592653589793,305.6,2948.0,7.988882253309227,2022-06-15 13:39:31
499,Main,5,1,22,Graphic designer,True,h_AD,h_AD,True,True,True,Probably different,0,0.0,305.6,3191.0,8.068089626278244,2022-06-15 13:39:31
500,Main,5,1,23,Graphic designer,True,t_BD,t_AD,True,False,False,Probably different,1,3.141592653589793,305.6,3120.0,8.045588280803528,2022-06-15 13:39:31
501,Main,5,1,24,Graphic designer,True,q_DD,q_AA,False,True,False,Sure different,1,3.141592653589793,305.6,3171.0,8.061802274538348,2022-06-15 13:39:31
502,Main,5,1,25,Graphic designer,True,a_BC,a_AD,True,True,False,Probably same,0,0.0,305.6,3199.0,8.070593539949519,2022-06-15 13:39:31
503,Main,5,1,26,Graphic designer,True,b_AD,b_AB,True,False,True,Sure same,1,3.141592653589793,305.6,3320.0,8.107720061910534,2022-06-15 13:39:31
504,Main,5,1,27,Graphic designer,True,r_AA,r_AA,False,True,True,Probably same,1,3.141592653589793,305.6,3215.0,8.07558263667172,2022-06-15 13:39:31
505,Main,5,1,28,Graphic designer,True,t_AB,t_AD,True,False,True,Sure different,0,0.0,305.6,3989.0,8.291295851905407,2022-06-15 13:39:31
506,Main,5,1,29,Graphic designer,True,e_DD,e_AA,False,True,False,Sure different,1,3.141592653589793,305.6,3013.0,8.0106915391303,2022-06-15 13:39:31
507,Main,5,1,30,Graphic designer,True,t_AD,t_BC,True,True,False,Probably same,0,0.0,305.6,3152.0,8.05579245097777,2022-06-15 13:39:31
508,Main,5,1,31,Graphic designer,True,b_AD,b_AD,True,True,True,Probably different,0,0.0,305.6,3249.0,8.0861025356691,2022-06-15 13:39:31
509,Main,5,1,32,Graphic designer,True,r_AD,r_AD,True,True,True,Sure different,0,0.0,305.6,3250.0,8.086410275323782,2022-06-15 13:39:31
510,Main,5,1,33,Graphic designer,True,q_AA,q_AA,False,True,True,Probably different,0,0.0,305.6,2953.0,7.990576881743923,2022-06-15 13:39:31
511,Main,5,1,34,Graphic designer,True,b_BD,b_AD,True,False,False,Sure different,1,3.141592653589793,305.6,2959.0,7.99260665240021,2022-06-15 13:39:31
512,Main,5,1,35,Graphic designer,True,p_AA,p_AA,False,True,True,Probably same,1,3.141592653589793,305.6,3020.0,8.013012110368916,2022-06-15 13:39:31
513,Main,5,1,36,Graphic designer,True,n_AD,n_AD,True,True,True,Probably same,1,3.141592653589793,305.6,3697.0,8.215276958936633,2022-06-15 13:39:31
514,Main,5,1,37,Graphic designer,True,r_AD,r_BD,True,False,False,Sure different,1,3.141592653589793,305.6,3323.0,8.108623268354595,2022-06-15 13:39:31
515,Main,5,1,38,Graphic designer,True,q_AD,q_AB,True,False,True,Probably same,1,3.141592653589793,305.6,3150.0,8.055157731819678,2022-06-15 13:39:31
516,Main,5,1,39,Graphic designer,True,c_AA,c_AA,False,True,True,Probably same,1,3.141592653589793,305.6,3350.0,8.116715624819111,2022-06-15 13:39:31
517,Main,5,1,40,Graphic designer,True,j_AA,j_AA,False,True,True,Probably same,1,3.141592653589793,305.6,3340.0,8.113726085970747,2022-06-15 13:39:31
518,Main,5,1,41,Graphic designer,True,e_AD,e_AB,True,False,True,Probably different,0,0.0,305.6,2978.0,7.999007213243955,2022-06-15 13:39:31
519,Main,5,1,42,Graphic designer,True,t_AD,t_AD,True,True,True,Probably same,1,3.141592653589793,305.6,6913.0,8.841158975945264,2022-06-15 13:39:31
520,Main,5,1,43,Graphic designer,True,r_DD,r_AA,False,True,False,Sure different,1,3.141592653589793,305.6,3238.0,8.08271113423758,2022-06-15 13:39:31
521,Main,5,1,44,Graphic designer,True,z_AD,z_AD,True,True,True,Probably same,1,3.141592653589793,305.6,4041.0,8.304247465078474,2022-06-15 13:39:31
522,Main,5,1,45,Graphic designer,True,b_BC,b_AD,True,True,False,Sure different,1,3.141592653589793,305.6,3509.0,8.163086375583216,2022-06-15 13:39:31
523,Main,5,1,46,Graphic designer,True,a_AD,a_AD,True,True,True,Probably same,1,3.141592653589793,305.6,3201.0,8.071218539969863,2022-06-15 13:39:31
524,Main,5,1,47,Graphic designer,True,a_AD,a_BD,True,False,False,Probably same,0,0.0,305.6,3283.0,8.096512917501594,2022-06-15 13:39:31
525,Main,5,1,48,Graphic designer,True,e_BD,e_AD,True,False,False,Probably same,0,0.0,305.6,4236.0,8.351374706721296,2022-06-15 13:39:31
526,Main,5,1,49,Graphic designer,True,z_BC,z_AD,True,True,False,Sure different,1,3.141592653589793,305.6,2852.0,7.955775781534187,2022-06-15 13:39:31
527,Main,5,1,50,Graphic designer,True,h_AA,h_DD,False,True,False,Sure different,1,3.141592653589793,305.6,3409.0,8.134174272137903,2022-06-15 13:39:31
528,Main,5,1,51,Graphic designer,True,e_AD,e_BC,True,True,False,Probably same,0,0.0,305.6,3437.0,8.142354276849835,2022-06-15 13:39:31
529,Main,5,1,52,Graphic designer,True,a_AA,a_AA,False,True,True,Probably same,1,3.141592653589793,305.6,3039.0,8.019283792916793,2022-06-15 13:39:31
530,Main,5,1,53,Graphic designer,True,j_AD,j_BD,True,False,False,Probably different,1,3.141592653589793,305.6,3681.0,8.210939733379021,2022-06-15 13:39:31
531,Main,5,1,54,Graphic designer,True,t_AA,t_AA,False,True,True,Probably different,0,0.0,305.6,3251.0,8.086717920303906,2022-06-15 13:39:31
532,Main,5,1,55,Graphic designer,True,j_AD,j_AB,True,False,True,Probably different,0,0.0,305.6,3814.0,8.246433786160365,2022-06-15 13:39:31
533,Main,5,1,56,Graphic designer,True,r_AB,r_AD,True,False,True,Probably same,1,3.141592653589793,305.6,3190.0,8.06777619577889,2022-06-15 13:39:31
534,Main,5,1,57,Graphic designer,True,r_BC,r_AD,True,True,False,Sure different,1,3.141592653589793,305.6,3248.0,8.085794701281568,2022-06-15 13:39:31
535,Main,5,1,58,Graphic designer,True,c_AD,c_AD,True,True,True,Probably different,0,0.0,305.6,4573.0,8.427924723658055,2022-06-15 13:39:31
536,Main,5,1,59,Graphic designer,True,e_AA,e_AA,False,True,True,Probably same,1,3.141592653589793,305.6,4527.0,8.417814747435958,2022-06-15 13:39:31
537,Main,5,1,60,Graphic designer,True,h_AB,h_AD,True,False,True,Sure different,0,0.0,305.6,4018.0,8.29853954537488,2022-06-15 13:39:31
538,Main,5,1,61,Graphic designer,True,e_AD,e_AD,True,True,True,Sure different,0,0.0,305.6,4145.0,8.329658067569396,2022-06-15 13:39:31
539,Main,5,1,62,Graphic designer,True,p_AA,p_DD,False,True,False,Sure different,1,3.141592653589793,305.6,3188.0,8.067149039910106,2022-06-15 13:39:31
540,Main,5,1,63,Graphic designer,True,c_AD,c_BC,True,True,False,Sure different,1,3.141592653589793,305.6,3353.0,8.117610746466228,2022-06-15 13:39:31
541,Main,5,1,64,Graphic designer,True,j_AD,j_BC,True,True,False,Probably different,1,3.141592653589793,305.6,9184.0,9.125218118559348,2022-06-15 13:39:31
542,Main,5,1,65,Graphic designer,True,p_BC,p_AD,True,True,False,Probably different,1,3.141592653589793,305.6,2998.0,8.005700678662542,2022-06-15 13:39:31
543,Main,5,1,66,Graphic designer,True,c_AD,c_BD,True,False,False,Probably different,1,3.141592653589793,305.6,3522.0,8.166784289056151,2022-06-15 13:39:31
544,Main,5,1,67,Graphic designer,True,z_AD,z_BD,True,False,False,Probably same,0,0.0,305.6,2808.0,7.940227765145702,2022-06-15 13:39:31
545,Main,5,1,68,Graphic designer,True,z_DD,z_AA,False,True,False,Sure different,1,3.141592653589793,305.6,3270.0,8.0925452638913,2022-06-15 13:39:31
546,Main,5,1,69,Graphic designer,True,n_BD,n_AD,True,False,False,Probably different,1,3.141592653589793,305.6,3526.0,8.167919362957816,2022-06-15 13:39:31
547,Main,5,1,70,Graphic designer,True,h_AA,h_AA,False,True,True,Probably same,1,3.141592653589793,305.6,3676.0,8.209580483475577,2022-06-15 13:39:31
548,Main,5,1,71,Graphic designer,True,n_AA,n_AA,False,True,True,Probably same,1,3.141592653589793,305.6,3423.0,8.138272638530186,2022-06-15 13:39:31
549,Main,5,1,72,Graphic designer,True,p_AD,p_BD,True,False,False,Probably same,0,0.0,305.6,2867.0,7.96102146588337,2022-06-15 13:39:31
550,Main,5,0,19,Graphic designer,True,u_BD,u_AD,True,False,False,Sure different,1,3.141592653589793,725.0,4744.0,8.464635940677562,2022-06-15 13:39:31
551,Main,5,0,20,Graphic designer,True,i_AD,i_AD,True,True,True,Probably same,1,3.141592653589793,800.0,4474.0,8.406038142050075,2022-06-15 13:39:31
552,Main,6,0,1,Graphic designer,True,d_BC,d_AD,True,True,False,Sure same,0,0.0,800.0,9078.0,9.113609183016411,2022-06-15 13:38:26
553,Main,6,0,2,Graphic designer,True,u_DD,u_AA,False,True,False,Sure different,1,3.141592653589793,800.0,6085.0,8.713582005421628,2022-06-15 13:38:26
554,Main,6,0,3,Graphic designer,True,d_DD,d_AA,False,True,False,Sure different,1,3.141592653589793,800.0,7207.0,8.88280805492444,2022-06-15 13:38:26
555,Main,6,0,4,Graphic designer,True,d_AA,d_AA,False,True,True,Sure same,1,3.141592653589793,725.0,4505.0,8.412943170042439,2022-06-15 13:38:26
556,Main,6,0,5,Graphic designer,True,i_DD,i_AA,False,True,False,Sure different,1,3.141592653589793,650.0,4127.0,8.325306029752582,2022-06-15 13:38:26
557,Main,6,0,6,Graphic designer,True,d_AD,d_BC,True,True,False,Probably different,1,3.141592653589793,575.0,5001.0,8.517393171418904,2022-06-15 13:38:26
558,Main,6,0,7,Graphic designer,True,i_AD,i_BD,True,False,False,Sure same,0,0.0,500.0,4908.0,8.498621805830801,2022-06-15 13:38:26
559,Main,6,0,8,Graphic designer,True,d_AD,d_BD,True,False,False,Probably different,1,3.141592653589793,425.0,6195.0,8.731497794063243,2022-06-15 13:38:26
560,Main,6,0,9,Graphic designer,True,u_AB,u_AD,True,False,True,Probably different,0,0.0,350.0,4468.0,8.404696160189092,2022-06-15 13:38:26
561,Main,6,0,10,Graphic designer,True,d_AB,d_AD,True,False,True,Probably same,1,3.141592653589793,275.0,5800.0,8.66561319653451,2022-06-15 13:38:26
562,Main,6,0,11,Graphic designer,True,u_AD,u_BC,True,True,False,Probably same,0,0.0,200.0,5642.0,8.637993891561942,2022-06-15 13:38:26
563,Main,6,0,12,Graphic designer,True,u_AA,u_AA,False,True,True,Sure same,1,3.141592653589793,200.0,3013.0,8.0106915391303,2022-06-15 13:38:26
564,Main,6,0,13,Graphic designer,True,i_BC,i_AD,True,True,False,Sure different,1,3.141592653589793,275.0,3449.0,8.145839612936841,2022-06-15 13:38:26
565,Main,6,0,14,Graphic designer,True,i_AB,i_AD,True,False,True,Probably same,1,3.141592653589793,350.0,5044.0,8.52595469708481,2022-06-15 13:38:26
566,Main,6,0,15,Graphic designer,True,u_AD,u_AD,True,True,True,Sure same,1,3.141592653589793,425.0,3400.0,8.131530710604252,2022-06-15 13:38:26
567,Main,6,0,16,Graphic designer,True,u_DD,u_AA,False,True,False,Sure different,1,3.141592653589793,500.0,3456.0,8.147867129923947,2022-06-15 13:38:26
568,Main,6,0,17,Graphic designer,True,d_AD,d_AD,True,True,True,Sure same,1,3.141592653589793,575.0,3899.0,8.268475388982598,2022-06-15 13:38:26
569,Main,6,0,18,Graphic designer,True,i_AA,i_AA,False,True,True,Sure different,0,0.0,650.0,4497.0,8.411165786770708,2022-06-15 13:38:26
570,Main,6,1,1,Graphic designer,True,h_AA,h_AA,False,True,True,Sure same,1,3.141592653589793,344.4,5445.0,8.602453035367061,2022-06-15 13:38:26
571,Main,6,1,2,Graphic designer,True,t_DD,t_AA,False,True,False,Sure different,1,3.141592653589793,344.4,3475.0,8.153349757998892,2022-06-15 13:38:26
572,Main,6,1,3,Graphic designer,True,b_AA,b_AA,False,True,True,Sure same,1,3.141592653589793,344.4,3007.0,8.008698182988528,2022-06-15 13:38:26
573,Main,6,1,4,Graphic designer,True,j_DD,j_AA,False,True,False,Sure same,0,0.0,344.4,3137.0,8.051022208190679,2022-06-15 13:38:26
574,Main,6,1,5,Graphic designer,True,z_DD,z_AA,False,True,False,Sure different,1,3.141592653589793,344.4,4020.0,8.299037181613066,2022-06-15 13:38:26
575,Main,6,1,6,Graphic designer,True,c_AD,c_BD,True,False,False,Sure same,0,0.0,344.4,4235.0,8.351138607086154,2022-06-15 13:38:26
576,Main,6,1,7,Graphic designer,True,q_AD,q_BC,True,True,False,Sure same,0,0.0,344.4,4221.0,8.347827345782498,2022-06-15 13:38:26
577,Main,6,1,8,Graphic designer,True,j_AD,j_BD,True,False,False,Sure same,0,0.0,344.4,3115.0,8.043984431221553,2022-06-15 13:38:26
578,Main,6,1,9,Graphic designer,True,b_AA,b_DD,False,True,False,Sure same,0,0.0,344.4,3450.0,8.146129510025405,2022-06-15 13:38:26
579,Main,6,1,10,Graphic designer,True,q_AA,q_AA,False,True,True,Sure same,1,3.141592653589793,344.4,3183.0,8.065579427282092,2022-06-15 13:38:26
580,Main,6,1,11,Graphic designer,True,a_DD,a_AA,False,True,False,Sure different,1,3.141592653589793,344.4,3915.0,8.272570608424903,2022-06-15 13:38:26
581,Main,6,1,12,Graphic designer,True,p_AD,p_AD,True,True,True,Sure same,1,3.141592653589793,344.4,3125.0,8.047189562170502,2022-06-15 13:38:26
582,Main,6,1,13,Graphic designer,True,q_AD,q_AD,True,True,True,Sure same,1,3.141592653589793,344.4,2920.0,7.979338895262328,2022-06-15 13:38:26
583,Main,6,1,14,Graphic designer,True,p_BD,p_AD,True,False,False,Sure different,1,3.141592653589793,344.4,3453.0,8.146998697389993,2022-06-15 13:38:26
584,Main,6,1,15,Graphic designer,True,j_AD,j_AD,True,True,True,Sure same,1,3.141592653589793,344.4,4842.0,8.485083137498004,2022-06-15 13:38:26
585,Main,6,1,16,Graphic designer,True,n_AD,n_AB,True,False,True,Sure same,1,3.141592653589793,344.4,3655.0,8.203851372183879,2022-06-15 13:38:26
586,Main,6,1,17,Graphic designer,True,e_AD,e_AD,True,True,True,Sure same,1,3.141592653589793,344.4,3228.0,8.07961802938984,2022-06-15 13:38:26
587,Main,6,1,18,Graphic designer,True,j_BC,j_AD,True,True,False,Sure different,1,3.141592653589793,344.4,3036.0,8.01829613851552,2022-06-15 13:38:26
588,Main,6,1,19,Graphic designer,True,z_AD,z_AB,True,False,True,Sure same,1,3.141592653589793,344.4,3001.0,8.006700845440367,2022-06-15 13:38:26
589,Main,6,1,20,Graphic designer,True,b_AD,b_BD,True,False,False,Sure different,1,3.141592653589793,344.4,3136.0,8.0507033814703,2022-06-15 13:38:26
590,Main,6,1,21,Graphic designer,True,n_AD,n_BC,True,True,False,Sure same,0,0.0,344.4,2916.0,7.977968093128549,2022-06-15 13:38:26
591,Main,6,1,22,Graphic designer,True,z_AA,z_AA,False,True,True,Sure same,1,3.141592653589793,344.4,3144.0,8.053251153549096,2022-06-15 13:38:26
592,Main,6,1,23,Graphic designer,True,e_AD,e_BC,True,True,False,Probably same,0,0.0,344.4,4460.0,8.40290404501411,2022-06-15 13:38:26
593,Main,6,1,24,Graphic designer,True,q_AA,q_DD,False,True,False,Sure different,1,3.141592653589793,344.4,3673.0,8.208764045819667,2022-06-15 13:38:26
594,Main,6,1,25,Graphic designer,True,r_AD,r_AD,True,True,True,Sure same,1,3.141592653589793,344.4,3014.0,8.01102337918644,2022-06-15 13:38:26
595,Main,6,1,26,Graphic designer,True,p_AD,p_AB,True,False,True,Sure same,1,3.141592653589793,344.4,2924.0,7.980707820869669,2022-06-15 13:38:26
596,Main,6,1,27,Graphic designer,True,c_DD,c_AA,False,True,False,Sure different,1,3.141592653589793,344.4,3193.0,8.068716192714781,2022-06-15 13:38:26
597,Main,6,1,28,Graphic designer,True,e_AA,e_AA,False,True,True,Sure same,1,3.141592653589793,344.4,3023.0,8.014004994779459,2022-06-15 13:38:26
598,Main,6,1,29,Graphic designer,True,h_AD,h_BC,True,True,False,Probably different,1,3.141592653589793,344.4,4134.0,8.327000740241713,2022-06-15 13:38:26
599,Main,6,1,30,Graphic designer,True,b_AD,b_AD,True,True,True,Sure same,1,3.141592653589793,344.4,3025.0,8.014666370464942,2022-06-15 13:38:26
600,Main,6,1,31,Graphic designer,True,e_AB,e_AD,True,False,True,Sure same,1,3.141592653589793,344.4,2747.0,7.918264686095274,2022-06-15 13:38:26
601,Main,6,1,32,Graphic designer,True,a_AA,a_AA,False,True,True,Sure same,1,3.141592653589793,344.4,2999.0,8.00603417874901,2022-06-15 13:38:26
602,Main,6,1,33,Graphic designer,True,t_AD,t_AB,True,False,True,Sure same,1,3.141592653589793,344.4,3100.0,8.039157390473237,2022-06-15 13:38:26
603,Main,6,1,34,Graphic designer,True,n_AD,n_AD,True,True,True,Sure same,1,3.141592653589793,344.4,2854.0,7.956476798036782,2022-06-15 13:38:26
604,Main,6,1,35,Graphic designer,True,z_AD,z_BD,True,False,False,Sure different,1,3.141592653589793,344.4,4378.0,8.384347278082808,2022-06-15 13:38:26
605,Main,6,1,36,Graphic designer,True,r_AD,r_AB,True,False,True,Sure same,1,3.141592653589793,344.4,2844.0,7.952966790923131,2022-06-15 13:38:26
606,Main,6,1,37,Graphic designer,True,n_AA,n_AA,False,True,True,Sure same,1,3.141592653589793,344.4,2872.0,7.962763930168115,2022-06-15 13:38:26
607,Main,6,1,38,Graphic designer,True,p_AA,p_AA,False,True,True,Sure same,1,3.141592653589793,344.4,2892.0,7.969703583278656,2022-06-15 13:38:26
608,Main,6,1,39,Graphic designer,True,t_AD,t_AD,True,True,True,Sure same,1,3.141592653589793,344.4,2846.0,7.953669778649798,2022-06-15 13:38:26
609,Main,6,1,40,Graphic designer,True,c_AA,c_AA,False,True,True,Sure same,1,3.141592653589793,344.4,2697.0,7.89989532313973,2022-06-15 13:38:26
610,Main,6,1,41,Graphic designer,True,b_AB,b_AD,True,False,True,Sure same,1,3.141592653589793,344.4,2720.0,7.908387159290043,2022-06-15 13:38:26
611,Main,6,1,42,Graphic designer,True,r_AA,r_AA,False,True,True,Sure same,1,3.141592653589793,344.4,2675.0,7.891704659330107,2022-06-15 13:38:26
612,Main,6,1,43,Graphic designer,True,c_AD,c_AD,True,True,True,Sure same,1,3.141592653589793,344.4,2669.0,7.889459149404524,2022-06-15 13:38:26
613,Main,6,1,44,Graphic designer,True,h_AD,h_AB,True,False,True,Sure same,1,3.141592653589793,344.4,2796.0,7.935945103353701,2022-06-15 13:38:26
614,Main,6,1,45,Graphic designer,True,e_AA,e_DD,False,True,False,Sure different,1,3.141592653589793,344.4,4977.0,8.512582578858554,2022-06-15 13:38:26
615,Main,6,1,46,Graphic designer,True,q_BD,q_AD,True,False,False,Probably different,1,3.141592653589793,344.4,4221.0,8.347827345782498,2022-06-15 13:38:26
616,Main,6,1,47,Graphic designer,True,j_AD,j_AB,True,False,True,Sure same,1,3.141592653589793,344.4,3571.0,8.18060094759445,2022-06-15 13:38:26
617,Main,6,1,48,Graphic designer,True,t_AA,t_AA,False,True,True,Sure same,1,3.141592653589793,344.4,3112.0,8.043020885298283,2022-06-15 13:38:26
618,Main,6,1,49,Graphic designer,True,c_AD,c_AB,True,False,True,Sure same,1,3.141592653589793,344.4,2620.0,7.8709295967551425,2022-06-15 13:38:26
619,Main,6,1,50,Graphic designer,True,a_AD,a_BD,True,False,False,Sure different,1,3.141592653589793,344.4,3842.0,8.253748343328501,2022-06-15 13:38:26
620,Main,6,1,51,Graphic designer,True,a_AD,a_AD,True,True,True,Sure same,1,3.141592653589793,344.4,2878.0,7.964850887447313,2022-06-15 13:38:26
621,Main,6,1,52,Graphic designer,True,c_BC,c_AD,True,True,False,Sure different,1,3.141592653589793,344.4,3863.0,8.259199362666282,2022-06-15 13:38:26
622,Main,6,1,53,Graphic designer,True,a_BC,a_AD,True,True,False,Sure same,0,0.0,344.4,3448.0,8.145549631783584,2022-06-15 13:38:26
623,Main,6,1,54,Graphic designer,True,n_AA,n_DD,False,True,False,Sure different,1,3.141592653589793,344.4,4024.0,8.300031711779575,2022-06-15 13:38:26
624,Main,6,1,55,Graphic designer,True,h_BD,h_AD,True,False,False,Sure different,1,3.141592653589793,344.4,3161.0,8.058643712215618,2022-06-15 13:38:26
625,Main,6,1,56,Graphic designer,True,a_AD,a_AB,True,False,True,Sure same,1,3.141592653589793,344.4,2851.0,7.955425088912672,2022-06-15 13:38:26
626,Main,6,1,57,Graphic designer,True,t_BC,t_AD,True,True,False,Sure same,0,0.0,344.4,3062.0,8.026823576217629,2022-06-15 13:38:26
627,Main,6,1,58,Graphic designer,True,p_BC,p_AD,True,True,False,Sure same,0,0.0,344.4,2928.0,7.982074875081202,2022-06-15 13:38:26
628,Main,6,1,59,Graphic designer,True,j_AA,j_AA,False,True,True,Sure same,1,3.141592653589793,344.4,2922.0,7.980023592310645,2022-06-15 13:38:26
629,Main,6,1,60,Graphic designer,True,r_AD,r_BC,True,True,False,Sure same,0,0.0,344.4,2761.0,7.923348211930154,2022-06-15 13:38:26
630,Main,6,1,61,Graphic designer,True,q_AD,q_AB,True,False,True,Sure different,0,0.0,344.4,3319.0,8.107418811719974,2022-06-15 13:38:26
631,Main,6,1,62,Graphic designer,True,r_DD,r_AA,False,True,False,Sure different,1,3.141592653589793,344.4,3341.0,8.114025442356757,2022-06-15 13:38:26
632,Main,6,1,63,Graphic designer,True,r_AD,r_BD,True,False,False,Sure same,0,0.0,344.4,3219.0,8.076826031298808,2022-06-15 13:38:26
633,Main,6,1,64,Graphic designer,True,e_AD,e_BD,True,False,False,Sure same,0,0.0,344.4,2640.0,7.878534196140362,2022-06-15 13:38:26
634,Main,6,1,65,Graphic designer,True,p_DD,p_AA,False,True,False,Sure different,1,3.141592653589793,344.4,2936.0,7.984803389734406,2022-06-15 13:38:26
635,Main,6,1,66,Graphic designer,True,n_BD,n_AD,True,False,False,Sure different,1,3.141592653589793,344.4,3201.0,8.071218539969863,2022-06-15 13:38:26
636,Main,6,1,67,Graphic designer,True,b_BC,b_AD,True,True,False,Sure different,1,3.141592653589793,344.4,2764.0,7.92443418488756,2022-06-15 13:38:26
637,Main,6,1,68,Graphic designer,True,h_DD,h_AA,False,True,False,Sure different,1,3.141592653589793,344.4,2920.0,7.979338895262328,2022-06-15 13:38:26
638,Main,6,1,69,Graphic designer,True,z_AD,z_BC,True,True,False,Sure different,1,3.141592653589793,344.4,2895.0,7.970740390007095,2022-06-15 13:38:26
639,Main,6,1,70,Graphic designer,True,h_AD,h_AD,True,True,True,Sure same,1,3.141592653589793,344.4,3028.0,8.01565761455734,2022-06-15 13:38:26
640,Main,6,1,71,Graphic designer,True,z_AD,z_AD,True,True,True,Sure same,1,3.141592653589793,344.4,2789.0,7.933438387627489,2022-06-15 13:38:26
641,Main,6,1,72,Graphic designer,True,t_AD,t_BD,True,False,False,Sure same,0,0.0,344.4,2734.0,7.913521017283895,2022-06-15 13:38:26
642,Main,6,0,19,Graphic designer,True,u_AD,u_BD,True,False,False,Sure same,0,0.0,725.0,4337.0,8.374938143835367,2022-06-15 13:38:26
643,Main,6,0,20,Graphic designer,True,i_AD,i_AD,True,True,True,Sure same,1,3.141592653589793,800.0,4397.0,8.388677769180811,2022-06-15 13:38:26
644,Main,7,0,1,Graphic designer,True,d_AD,d_BC,True,True,False,Sure same,0,0.0,800.0,15002.0,9.615938804529582,2022-06-15 13:35:57
645,Main,7,0,2,Graphic designer,True,u_AA,u_DD,False,True,False,Sure different,1,3.141592653589793,800.0,5233.0,8.562740006372207,2022-06-15 13:35:57
646,Main,7,0,3,Graphic designer,True,d_DD,d_AA,False,True,False,Sure different,1,3.141592653589793,800.0,3718.0,8.220941168281389,2022-06-15 13:35:57
647,Main,7,0,4,Graphic designer,True,d_AA,d_AA,False,True,True,Probably same,1,3.141592653589793,725.0,4200.0,8.34283980427146,2022-06-15 13:35:57
648,Main,7,0,5,Graphic designer,True,i_DD,i_AA,False,True,False,Sure different,1,3.141592653589793,650.0,3249.0,8.0861025356691,2022-06-15 13:35:57
649,Main,7,0,6,Graphic designer,True,d_BC,d_AD,True,True,False,Probably same,0,0.0,575.0,3900.0,8.268731832117737,2022-06-15 13:35:57
650,Main,7,0,7,Graphic designer,True,i_BD,i_AD,True,False,False,Sure different,1,3.141592653589793,500.0,3115.0,8.043984431221553,2022-06-15 13:35:57
651,Main,7,0,8,Graphic designer,True,d_BD,d_AD,True,False,False,Probably different,1,3.141592653589793,425.0,5402.0,8.59452453435256,2022-06-15 13:35:57
652,Main,7,0,9,Graphic designer,True,u_AB,u_AD,True,False,True,Sure same,1,3.141592653589793,350.0,3330.0,8.110727582974489,2022-06-15 13:35:57
653,Main,7,0,10,Graphic designer,True,d_AD,d_AB,True,False,True,Sure same,1,3.141592653589793,275.0,2435.0,7.79770203551669,2022-06-15 13:35:57
654,Main,7,0,11,Graphic designer,True,u_AD,u_BC,True,True,False,Sure different,1,3.141592653589793,200.0,3001.0,8.006700845440367,2022-06-15 13:35:57
655,Main,7,0,12,Graphic designer,True,u_AA,u_AA,False,True,True,Sure same,1,3.141592653589793,200.0,3099.0,8.038834757787749,2022-06-15 13:35:57
656,Main,7,0,13,Graphic designer,True,i_BC,i_AD,True,True,False,Sure different,1,3.141592653589793,275.0,3250.0,8.086410275323782,2022-06-15 13:35:57
657,Main,7,0,14,Graphic designer,True,i_AD,i_AB,True,False,True,Probably same,1,3.141592653589793,350.0,4249.0,8.354438940114811,2022-06-15 13:35:57
658,Main,7,0,15,Graphic designer,True,u_AD,u_AD,True,True,True,Probably same,1,3.141592653589793,425.0,2751.0,7.919719760924575,2022-06-15 13:35:57
659,Main,7,0,16,Graphic designer,True,u_AA,u_DD,False,True,False,Sure different,1,3.141592653589793,500.0,2966.0,7.994969522697877,2022-06-15 13:35:57
660,Main,7,0,17,Graphic designer,True,d_AD,d_AD,True,True,True,Sure same,1,3.141592653589793,575.0,4999.0,8.51699317141357,2022-06-15 13:35:57
661,Main,7,0,18,Graphic designer,True,i_AA,i_AA,False,True,True,Sure same,1,3.141592653589793,650.0,3151.0,8.055475141757274,2022-06-15 13:35:57
662,Main,7,1,1,Graphic designer,True,r_BC,r_AD,True,True,False,Sure same,0,0.0,188.9,5046.0,8.526351129201004,2022-06-15 13:35:57
663,Main,7,1,2,Graphic designer,True,c_BD,c_AD,True,False,False,Probably same,0,0.0,188.9,2650.0,7.882314918980268,2022-06-15 13:35:57
664,Main,7,1,3,Graphic designer,True,e_DD,e_AA,False,True,False,Probably different,1,3.141592653589793,188.9,3250.0,8.086410275323782,2022-06-15 13:35:57
665,Main,7,1,4,Graphic designer,True,p_AD,p_AD,True,True,True,Sure different,0,0.0,188.9,2817.0,7.943427767876373,2022-06-15 13:35:57
666,Main,7,1,5,Graphic designer,True,e_AB,e_AD,True,False,True,Probably same,1,3.141592653589793,188.9,5449.0,8.603187384583098,2022-06-15 13:35:57
667,Main,7,1,6,Graphic designer,True,r_AD,r_AD,True,True,True,Sure same,1,3.141592653589793,188.9,2617.0,7.869783902530146,2022-06-15 13:35:57
668,Main,7,1,7,Graphic designer,True,h_AD,h_AD,True,True,True,Sure same,1,3.141592653589793,188.9,3033.0,8.017307507688582,2022-06-15 13:35:57
669,Main,7,1,8,Graphic designer,True,a_DD,a_AA,False,True,False,Sure different,1,3.141592653589793,188.9,2850.0,7.955074273262696,2022-06-15 13:35:57
670,Main,7,1,9,Graphic designer,True,j_AD,j_AD,True,True,True,Probably same,1,3.141592653589793,188.9,3567.0,8.17948018535889,2022-06-15 13:35:57
671,Main,7,1,10,Graphic designer,True,p_AB,p_AD,True,False,True,Sure same,1,3.141592653589793,188.9,5150.0,8.546751993657782,2022-06-15 13:35:57
672,Main,7,1,11,Graphic designer,True,c_AA,c_AA,False,True,True,Probably same,1,3.141592653589793,188.9,2616.0,7.86940171257709,2022-06-15 13:35:57
673,Main,7,1,12,Graphic designer,True,z_AD,z_AD,True,True,True,Probably same,1,3.141592653589793,188.9,2750.0,7.919356190660617,2022-06-15 13:35:57
674,Main,7,1,13,Graphic designer,True,t_AD,t_AB,True,False,True,Probably different,0,0.0,188.9,2768.0,7.92588031673756,2022-06-15 13:35:57
675,Main,7,1,14,Graphic designer,True,c_AD,c_BC,True,True,False,Probably different,1,3.141592653589793,188.9,2833.0,7.949091499830517,2022-06-15 13:35:57
676,Main,7,1,15,Graphic designer,True,z_AD,z_BC,True,True,False,Sure different,1,3.141592653589793,188.9,3032.0,8.016977746762262,2022-06-15 13:35:57
677,Main,7,1,16,Graphic designer,True,p_BC,p_AD,True,True,False,Sure different,1,3.141592653589793,188.9,2402.0,7.784057002639929,2022-06-15 13:35:57
678,Main,7,1,17,Graphic designer,True,p_AD,p_BD,True,False,False,Probably different,1,3.141592653589793,188.9,2731.0,7.912423121473705,2022-06-15 13:35:57
679,Main,7,1,18,Graphic designer,True,b_BD,b_AD,True,False,False,Probably same,0,0.0,188.9,2834.0,7.949444420250626,2022-06-15 13:35:57
680,Main,7,1,19,Graphic designer,True,n_AD,n_AD,True,True,True,Sure same,1,3.141592653589793,188.9,2816.0,7.943072717277933,2022-06-15 13:35:57
681,Main,7,1,20,Graphic designer,True,j_AB,j_AD,True,False,True,Probably different,0,0.0,188.9,3301.0,8.101980731853192,2022-06-15 13:35:57
682,Main,7,1,21,Graphic designer,True,n_AD,n_AB,True,False,True,Probably different,0,0.0,188.9,3283.0,8.096512917501594,2022-06-15 13:35:57
683,Main,7,1,22,Graphic designer,True,q_AD,q_BC,True,True,False,Sure same,0,0.0,188.9,2966.0,7.994969522697877,2022-06-15 13:35:57
684,Main,7,1,23,Graphic designer,True,a_BD,a_AD,True,False,False,Probably different,1,3.141592653589793,188.9,2817.0,7.943427767876373,2022-06-15 13:35:57
685,Main,7,1,24,Graphic designer,True,q_AA,q_AA,False,True,True,Sure different,0,0.0,188.9,2769.0,7.926241523170962,2022-06-15 13:35:57
686,Main,7,1,25,Graphic designer,True,n_AD,n_BC,True,True,False,Sure different,1,3.141592653589793,188.9,2982.0,8.000349495324684,2022-06-15 13:35:57
687,Main,7,1,26,Graphic designer,True,c_AD,c_AD,True,True,True,Probably different,0,0.0,188.9,7082.0,8.86531163267185,2022-06-15 13:35:57
688,Main,7,1,27,Graphic designer,True,p_DD,p_AA,False,True,False,Sure different,1,3.141592653589793,188.9,2734.0,7.913521017283895,2022-06-15 13:35:57
689,Main,7,1,28,Graphic designer,True,z_AA,z_DD,False,True,False,Sure different,1,3.141592653589793,188.9,2434.0,7.797291273547472,2022-06-15 13:35:57
