,StudyID,ParticipantID,TestID,TrialID,Training,isDesigner,First,Second,Composite pair,Congruent pair,Same,Response,Correct,Correct (normalized),ET,RT,RT (normalized),Date
0,Main,0,0,1,Graphic designer,True,d_BC,d_AD,True,True,False,Probably different,1,3.141592653589793,800.0,8367.0,9.032050676295599,2022-06-16 07:57:35
1,Main,0,0,2,Graphic designer,True,u_DD,u_AA,False,True,False,Sure different,1,3.141592653589793,800.0,4598.0,8.433376705323127,2022-06-16 07:57:35
2,Main,0,0,3,Graphic designer,True,d_DD,d_AA,False,True,False,Sure different,1,3.141592653589793,800.0,3552.0,8.17526610411206,2022-06-16 07:57:35
3,Main,0,0,4,Graphic designer,True,d_AA,d_AA,False,True,True,Probably different,0,0.0,725.0,3748.0,8.228977643358313,2022-06-16 07:57:35
4,Main,0,0,5,Graphic designer,True,i_DD,i_AA,False,True,False,Sure different,1,3.141592653589793,650.0,2968.0,7.995643604287271,2022-06-16 07:57:35
5,Main,0,0,6,Graphic designer,True,d_AD,d_BC,True,True,False,Sure different,1,3.141592653589793,575.0,3068.0,8.028781162487148,2022-06-16 07:57:35
6,Main,0,0,7,Graphic designer,True,i_AD,i_BD,True,False,False,Sure different,1,3.141592653589793,500.0,2849.0,7.954723334497908,2022-06-16 07:57:35
7,Main,0,0,8,Graphic designer,True,d_AD,d_BD,True,False,False,Sure different,1,3.141592653589793,425.0,2699.0,7.900636613018005,2022-06-16 07:57:35
8,Main,0,0,9,Graphic designer,True,u_AD,u_AB,True,False,True,Probably different,0,0.0,350.0,3984.0,8.290041618704489,2022-06-16 07:57:35
9,Main,0,0,10,Graphic designer,True,d_AB,d_AD,True,False,True,Probably same,1,3.141592653589793,275.0,3698.0,8.21554741194707,2022-06-16 07:57:35
10,Main,0,0,11,Graphic designer,True,u_BC,u_AD,True,True,False,Sure different,1,3.141592653589793,200.0,2700.0,7.90100705199242,2022-06-16 07:57:35
11,Main,0,0,12,Graphic designer,True,u_AA,u_AA,False,True,True,Probably same,1,3.141592653589793,200.0,2869.0,7.9617188159813645,2022-06-16 07:57:35
12,Main,0,0,13,Graphic designer,True,i_BC,i_AD,True,True,False,Sure different,1,3.141592653589793,275.0,2532.0,7.836764783264067,2022-06-16 07:57:35
13,Main,0,0,14,Graphic designer,True,i_AD,i_AB,True,False,True,Probably same,1,3.141592653589793,350.0,3751.0,8.229777750081887,2022-06-16 07:57:35
14,Main,0,0,15,Graphic designer,True,u_AD,u_AD,True,True,True,Probably different,0,0.0,425.0,3066.0,8.028129059431759,2022-06-16 07:57:35
15,Main,0,0,16,Graphic designer,True,u_AA,u_DD,False,True,False,Sure different,1,3.141592653589793,500.0,2700.0,7.90100705199242,2022-06-16 07:57:35
16,Main,0,0,17,Graphic designer,True,d_AD,d_AD,True,True,True,Probably different,0,0.0,575.0,3601.0,8.188966863648876,2022-06-16 07:57:35
17,Main,0,0,18,Graphic designer,True,i_AA,i_AA,False,True,True,Probably same,1,3.141592653589793,650.0,3467.0,8.151044945685024,2022-06-16 07:57:35
18,Main,0,1,1,Graphic designer,True,n_AD,n_AD,True,True,True,Probably same,1,3.141592653589793,305.6,5366.0,8.58783803098557,2022-06-16 07:57:35
19,Main,0,1,2,Graphic designer,True,a_BC,a_AD,True,True,False,Probably same,0,0.0,305.6,2666.0,7.888334500738654,2022-06-16 07:57:35
20,Main,0,1,3,Graphic designer,True,b_AD,b_AD,True,True,True,Probably different,0,0.0,305.6,3249.0,8.0861025356691,2022-06-16 07:57:35
21,Main,0,1,4,Graphic designer,True,n_AA,n_AA,False,True,True,Probably different,0,0.0,305.6,2868.0,7.961370201719511,2022-06-16 07:57:35
22,Main,0,1,5,Graphic designer,True,t_BC,t_AD,True,True,False,Probably different,1,3.141592653589793,305.6,3480.0,8.15478757276852,2022-06-16 07:57:35
23,Main,0,1,6,Graphic designer,True,n_AD,n_AB,True,False,True,Probably same,1,3.141592653589793,305.6,2784.0,7.931644021454311,2022-06-16 07:57:35
24,Main,0,1,7,Graphic designer,True,p_AA,p_AA,False,True,True,Probably same,1,3.141592653589793,305.6,2718.0,7.907651594711089,2022-06-16 07:57:35
25,Main,0,1,8,Graphic designer,True,p_BD,p_AD,True,False,False,Sure different,1,3.141592653589793,305.6,3998.0,8.293549515060345,2022-06-16 07:57:35
26,Main,0,1,9,Graphic designer,True,n_BC,n_AD,True,True,False,Sure different,1,3.141592653589793,305.6,2689.0,7.896924656268864,2022-06-16 07:57:35
27,Main,0,1,10,Graphic designer,True,e_AD,e_BC,True,True,False,Probably different,1,3.141592653589793,305.6,3078.0,8.032035314398824,2022-06-16 07:57:35
28,Main,0,1,11,Graphic designer,True,q_AA,q_AA,False,True,True,Probably same,1,3.141592653589793,305.6,2775.0,7.928406026180535,2022-06-16 07:57:35
29,Main,0,1,12,Graphic designer,True,z_AA,z_AA,False,True,True,Probably same,1,3.141592653589793,305.6,2761.0,7.923348211930154,2022-06-16 07:57:35
30,Main,0,1,13,Graphic designer,True,q_AD,q_AD,True,True,True,Probably different,0,0.0,305.6,3516.0,8.165079258805068,2022-06-16 07:57:35
31,Main,0,1,14,Graphic designer,True,q_DD,q_AA,False,True,False,Sure different,1,3.141592653589793,305.6,2668.0,7.889084407035514,2022-06-16 07:57:35
32,Main,0,1,15,Graphic designer,True,t_AD,t_AB,True,False,True,Probably different,0,0.0,305.6,2650.0,7.882314918980268,2022-06-16 07:57:35
33,Main,0,1,16,Graphic designer,True,h_AD,h_AD,True,True,True,Probably same,1,3.141592653589793,305.6,2833.0,7.949091499830517,2022-06-16 07:57:35
34,Main,0,1,17,Graphic designer,True,c_AA,c_AA,False,True,True,Probably same,1,3.141592653589793,305.6,2516.0,7.830425617820331,2022-06-16 07:57:35
35,Main,0,1,18,Graphic designer,True,q_BC,q_AD,True,True,False,Probably same,0,0.0,305.6,2415.0,7.789454566086673,2022-06-16 07:57:35
36,Main,0,1,19,Graphic designer,True,r_AA,r_DD,False,True,False,Sure different,1,3.141592653589793,305.6,2650.0,7.882314918980268,2022-06-16 07:57:35
37,Main,0,1,20,Graphic designer,True,b_AA,b_AA,False,True,True,Probably same,1,3.141592653589793,305.6,2700.0,7.90100705199242,2022-06-16 07:57:35
38,Main,0,1,21,Graphic designer,True,h_BD,h_AD,True,False,False,Sure different,1,3.141592653589793,305.6,2485.0,7.818027938530729,2022-06-16 07:57:35
39,Main,0,1,22,Graphic designer,True,j_BD,j_AD,True,False,False,Sure different,1,3.141592653589793,305.6,3116.0,8.044305406990638,2022-06-16 07:57:35
40,Main,0,1,23,Graphic designer,True,a_AB,a_AD,True,False,True,Probably different,0,0.0,305.6,3201.0,8.071218539969863,2022-06-16 07:57:35
41,Main,0,1,24,Graphic designer,True,c_AD,c_AB,True,False,True,Probably different,0,0.0,305.6,2782.0,7.930925372483388,2022-06-16 07:57:35
42,Main,0,1,25,Graphic designer,True,t_AD,t_AD,True,True,True,Probably same,1,3.141592653589793,305.6,2901.0,7.972810784121404,2022-06-16 07:57:35
43,Main,0,1,26,Graphic designer,True,a_AD,a_BD,True,False,False,Probably same,0,0.0,305.6,2617.0,7.869783902530146,2022-06-16 07:57:35
44,Main,0,1,27,Graphic designer,True,p_BC,p_AD,True,True,False,Sure different,1,3.141592653589793,305.6,2515.0,7.83002808253384,2022-06-16 07:57:35
45,Main,0,1,28,Graphic designer,True,c_AA,c_DD,False,True,False,Sure different,1,3.141592653589793,305.6,2601.0,7.8636512654486515,2022-06-16 07:57:35
46,Main,0,1,29,Graphic designer,True,z_AD,z_AB,True,False,True,Probably same,1,3.141592653589793,305.6,2933.0,7.983781068977451,2022-06-16 07:57:35
47,Main,0,1,30,Graphic designer,True,z_BD,z_AD,True,False,False,Sure different,1,3.141592653589793,305.6,2634.0,7.876258882303226,2022-06-16 07:57:35
48,Main,0,1,31,Graphic designer,True,p_DD,p_AA,False,True,False,Sure different,1,3.141592653589793,305.6,2532.0,7.836764783264067,2022-06-16 07:57:35
49,Main,0,1,32,Graphic designer,True,e_AD,e_AD,True,True,True,Probably same,1,3.141592653589793,305.6,2652.0,7.883069351305753,2022-06-16 07:57:35
50,Main,0,1,33,Graphic designer,True,z_BC,z_AD,True,True,False,Sure different,1,3.141592653589793,305.6,2382.0,7.775695749915245,2022-06-16 07:57:35
51,Main,0,1,34,Graphic designer,True,b_AD,b_BC,True,True,False,Sure different,1,3.141592653589793,305.6,2615.0,7.869019376499023,2022-06-16 07:57:35
52,Main,0,1,35,Graphic designer,True,a_DD,a_AA,False,True,False,Sure different,1,3.141592653589793,305.6,2385.0,7.776954403322442,2022-06-16 07:57:35
53,Main,0,1,36,Graphic designer,True,p_AD,p_AB,True,False,True,Probably different,0,0.0,305.6,2966.0,7.994969522697877,2022-06-16 07:57:35
54,Main,0,1,37,Graphic designer,True,c_AD,c_AD,True,True,True,Probably different,0,0.0,305.6,2716.0,7.906915488678587,2022-06-16 07:57:35
55,Main,0,1,38,Graphic designer,True,c_AD,c_BC,True,True,False,Probably same,0,0.0,305.6,2968.0,7.995643604287271,2022-06-16 07:57:35
56,Main,0,1,39,Graphic designer,True,z_AD,z_AD,True,True,True,Probably same,1,3.141592653589793,305.6,2516.0,7.830425617820331,2022-06-16 07:57:35
57,Main,0,1,40,Graphic designer,True,b_AA,b_DD,False,True,False,Sure different,1,3.141592653589793,305.6,2401.0,7.783640596221253,2022-06-16 07:57:35
58,Main,0,1,41,Graphic designer,True,n_BD,n_AD,True,False,False,Sure different,1,3.141592653589793,305.6,2533.0,7.837159650001675,2022-06-16 07:57:35
59,Main,0,1,42,Graphic designer,True,b_BD,b_AD,True,False,False,Sure different,1,3.141592653589793,305.6,2450.0,7.803843303538772,2022-06-16 07:57:35
60,Main,0,1,43,Graphic designer,True,e_BD,e_AD,True,False,False,Probably same,0,0.0,305.6,2767.0,7.925518979786926,2022-06-16 07:57:35
61,Main,0,1,44,Graphic designer,True,r_AB,r_AD,True,False,True,Probably same,1,3.141592653589793,305.6,2817.0,7.943427767876373,2022-06-16 07:57:35
62,Main,0,1,45,Graphic designer,True,e_AB,e_AD,True,False,True,Probably same,1,3.141592653589793,305.6,2366.0,7.768956044538332,2022-06-16 07:57:35
63,Main,0,1,46,Graphic designer,True,p_AD,p_AD,True,True,True,Probably same,1,3.141592653589793,305.6,2433.0,7.796880342783522,2022-06-16 07:57:35
64,Main,0,1,47,Graphic designer,True,r_AA,r_AA,False,True,True,Probably same,1,3.141592653589793,305.6,2434.0,7.797291273547472,2022-06-16 07:57:35
65,Main,0,1,48,Graphic designer,True,c_BD,c_AD,True,False,False,Probably different,1,3.141592653589793,305.6,3033.0,8.017307507688582,2022-06-16 07:57:35
66,Main,0,1,49,Graphic designer,True,z_AA,z_DD,False,True,False,Sure different,1,3.141592653589793,305.6,2799.0,7.937017489515454,2022-06-16 07:57:35
67,Main,0,1,50,Graphic designer,True,j_AD,j_AD,True,True,True,Probably same,1,3.141592653589793,305.6,2734.0,7.913521017283895,2022-06-16 07:57:35
68,Main,0,1,51,Graphic designer,True,j_AD,j_BC,True,True,False,Probably different,1,3.141592653589793,305.6,2916.0,7.977968093128549,2022-06-16 07:57:35
69,Main,0,1,52,Graphic designer,True,t_AA,t_DD,False,True,False,Sure different,1,3.141592653589793,305.6,2600.0,7.8632667240095735,2022-06-16 07:57:35
70,Main,0,1,53,Graphic designer,True,h_AB,h_AD,True,False,True,Probably same,1,3.141592653589793,305.6,3268.0,8.091933455979893,2022-06-16 07:57:35
71,Main,0,1,54,Graphic designer,True,a_AA,a_AA,False,True,True,Probably same,1,3.141592653589793,305.6,2617.0,7.869783902530146,2022-06-16 07:57:35
72,Main,0,1,55,Graphic designer,True,q_AD,q_AB,True,False,True,Probably different,0,0.0,305.6,2866.0,7.960672608388117,2022-06-16 07:57:35
73,Main,0,1,56,Graphic designer,True,e_AA,e_AA,False,True,True,Probably same,1,3.141592653589793,305.6,2733.0,7.913155185928068,2022-06-16 07:57:35
74,Main,0,1,57,Graphic designer,True,r_BD,r_AD,True,False,False,Probably different,1,3.141592653589793,305.6,3150.0,8.055157731819678,2022-06-16 07:57:35
75,Main,0,1,58,Graphic designer,True,b_AD,b_AB,True,False,True,Probably same,1,3.141592653589793,305.6,2701.0,7.901377353792616,2022-06-16 07:57:35
76,Main,0,1,59,Graphic designer,True,t_BD,t_AD,True,False,False,Probably same,0,0.0,305.6,2799.0,7.937017489515454,2022-06-16 07:57:35
77,Main,0,1,60,Graphic designer,True,t_AA,t_AA,False,True,True,Probably same,1,3.141592653589793,305.6,2584.0,7.857093864902493,2022-06-16 07:57:35
78,Main,0,1,61,Graphic designer,True,j_AB,j_AD,True,False,True,Probably same,1,3.141592653589793,305.6,2866.0,7.960672608388117,2022-06-16 07:57:35
79,Main,0,1,62,Graphic designer,True,r_AD,r_AD,True,True,True,Probably same,1,3.141592653589793,305.6,2716.0,7.906915488678587,2022-06-16 07:57:35
80,Main,0,1,63,Graphic designer,True,r_BC,r_AD,True,True,False,Probably different,1,3.141592653589793,305.6,2984.0,8.001019961323651,2022-06-16 07:57:35
81,Main,0,1,64,Graphic designer,True,h_DD,h_AA,False,True,False,Sure different,1,3.141592653589793,305.6,2384.0,7.776535028185241,2022-06-16 07:57:35
82,Main,0,1,65,Graphic designer,True,a_AD,a_AD,True,True,True,Probably same,1,3.141592653589793,305.6,3732.0,8.224699561967235,2022-06-16 07:57:35
83,Main,0,1,66,Graphic designer,True,e_DD,e_AA,False,True,False,Sure different,1,3.141592653589793,305.6,2634.0,7.876258882303226,2022-06-16 07:57:35
84,Main,0,1,67,Graphic designer,True,q_BD,q_AD,True,False,False,Probably different,1,3.141592653589793,305.6,3016.0,8.011686729127847,2022-06-16 07:57:35
85,Main,0,1,68,Graphic designer,True,h_BC,h_AD,True,True,False,Sure different,1,3.141592653589793,305.6,2451.0,7.804251383528112,2022-06-16 07:57:35
86,Main,0,1,69,Graphic designer,True,j_DD,j_AA,False,True,False,Sure different,1,3.141592653589793,305.6,2282.0,7.732807530422021,2022-06-16 07:57:35
87,Main,0,1,70,Graphic designer,True,h_AA,h_AA,False,True,True,Probably same,1,3.141592653589793,305.6,2634.0,7.876258882303226,2022-06-16 07:57:35
88,Main,0,1,71,Graphic designer,True,j_AA,j_AA,False,True,True,Probably same,1,3.141592653589793,305.6,3083.0,8.03365842788615,2022-06-16 07:57:35
89,Main,0,1,72,Graphic designer,True,n_AA,n_DD,False,True,False,Sure different,1,3.141592653589793,305.6,2550.0,7.843848638152472,2022-06-16 07:57:35
90,Main,0,0,19,Graphic designer,True,u_AD,u_BD,True,False,False,Sure different,1,3.141592653589793,725.0,3082.0,8.033334015880062,2022-06-16 07:57:35
91,Main,0,0,20,Graphic designer,True,i_AD,i_AD,True,True,True,Probably same,1,3.141592653589793,800.0,3383.0,8.12651816878071,2022-06-16 07:57:35
92,Main,1,0,1,Graphic designer,True,d_BC,d_AD,True,True,False,Probably different,1,3.141592653589793,800.0,9954.0,9.2057297594185,2022-06-16 04:46:08
93,Main,1,0,2,Graphic designer,True,u_AA,u_DD,False,True,False,Probably different,1,3.141592653589793,800.0,8121.0,9.002208578282412,2022-06-16 04:46:08
94,Main,1,0,3,Graphic designer,True,d_DD,d_AA,False,True,False,Sure different,1,3.141592653589793,800.0,7537.0,8.92757950384347,2022-06-16 04:46:08
95,Main,1,0,4,Graphic designer,True,d_AA,d_AA,False,True,True,Sure same,1,3.141592653589793,725.0,4123.0,8.3243363327069,2022-06-16 04:46:08
96,Main,1,0,5,Graphic designer,True,i_AA,i_DD,False,True,False,Sure different,1,3.141592653589793,650.0,3222.0,8.07775756373692,2022-06-16 04:46:08
97,Main,1,0,6,Graphic designer,True,d_BC,d_AD,True,True,False,Sure different,1,3.141592653589793,575.0,3491.0,8.157943507105037,2022-06-16 04:46:08
98,Main,1,0,7,Graphic designer,True,i_BD,i_AD,True,False,False,Sure different,1,3.141592653589793,500.0,3260.0,8.089482474360754,2022-06-16 04:46:08
99,Main,1,0,8,Graphic designer,True,d_AD,d_BD,True,False,False,Sure same,0,0.0,425.0,3509.0,8.163086375583216,2022-06-16 04:46:08
100,Main,1,0,9,Graphic designer,True,u_AB,u_AD,True,False,True,Sure same,1,3.141592653589793,350.0,3317.0,8.106816038947052,2022-06-16 04:46:08
101,Main,1,0,10,Graphic designer,True,d_AB,d_AD,True,False,True,Sure same,1,3.141592653589793,275.0,2658.0,7.885329239273191,2022-06-16 04:46:08
102,Main,1,0,11,Graphic designer,True,u_BC,u_AD,True,True,False,Sure different,1,3.141592653589793,200.0,2701.0,7.901377353792616,2022-06-16 04:46:08
103,Main,1,0,12,Graphic designer,True,u_AA,u_AA,False,True,True,Sure different,0,0.0,200.0,2434.0,7.797291273547472,2022-06-16 04:46:08
104,Main,1,0,13,Graphic designer,True,i_BC,i_AD,True,True,False,Sure different,1,3.141592653589793,275.0,2699.0,7.900636613018005,2022-06-16 04:46:08
105,Main,1,0,14,Graphic designer,True,i_AD,i_AB,True,False,True,Sure same,1,3.141592653589793,350.0,3152.0,8.05579245097777,2022-06-16 04:46:08
106,Main,1,0,15,Graphic designer,True,u_AD,u_AD,True,True,True,Sure same,1,3.141592653589793,425.0,3341.0,8.114025442356757,2022-06-16 04:46:08
107,Main,1,0,16,Graphic designer,True,u_AA,u_DD,False,True,False,Sure different,1,3.141592653589793,500.0,3017.0,8.012018239159062,2022-06-16 04:46:08
108,Main,1,0,17,Graphic designer,True,d_AD,d_AD,True,True,True,Sure same,1,3.141592653589793,575.0,3590.0,8.185907481482324,2022-06-16 04:46:08
109,Main,1,0,18,Graphic designer,True,i_AA,i_AA,False,True,True,Sure same,1,3.141592653589793,650.0,3563.0,8.178358165605836,2022-06-16 04:46:08
110,Main,1,1,1,Graphic designer,True,a_AD,a_BD,True,False,False,Sure same,0,0.0,227.8,4888.0,8.494538500851432,2022-06-16 04:46:08
111,Main,1,1,2,Graphic designer,True,b_AA,b_DD,False,True,False,Sure different,1,3.141592653589793,227.8,2673.0,7.890956716138919,2022-06-16 04:46:08
112,Main,1,1,3,Graphic designer,True,r_AD,r_AD,True,True,True,Sure same,1,3.141592653589793,227.8,3293.0,8.099554282376364,2022-06-16 04:46:08
113,Main,1,1,4,Graphic designer,True,t_AD,t_BC,True,True,False,Sure different,1,3.141592653589793,227.8,2710.0,7.904703913873747,2022-06-16 04:46:08
114,Main,1,1,5,Graphic designer,True,p_AA,p_AA,False,True,True,Sure different,0,0.0,227.8,3102.0,8.039802343736485,2022-06-16 04:46:08
115,Main,1,1,6,Graphic designer,True,q_AD,q_AD,True,True,True,Sure same,1,3.141592653589793,227.8,2780.0,7.930206206684683,2022-06-16 04:46:08
116,Main,1,1,7,Graphic designer,True,t_BD,t_AD,True,False,False,Sure same,0,0.0,227.8,2434.0,7.797291273547472,2022-06-16 04:46:08
117,Main,1,1,8,Graphic designer,True,a_AA,a_DD,False,True,False,Sure different,1,3.141592653589793,227.8,2573.0,7.8528278122817445,2022-06-16 04:46:08
118,Main,1,1,9,Graphic designer,True,j_BD,j_AD,True,False,False,Sure different,1,3.141592653589793,227.8,3702.0,8.216628493133443,2022-06-16 04:46:08
119,Main,1,1,10,Graphic designer,True,c_DD,c_AA,False,True,False,Sure different,1,3.141592653589793,227.8,3113.0,8.043342170441608,2022-06-16 04:46:08
120,Main,1,1,11,Graphic designer,True,b_BC,b_AD,True,True,False,Sure same,0,0.0,227.8,2730.0,7.912056888179006,2022-06-16 04:46:08
121,Main,1,1,12,Graphic designer,True,t_AA,t_AA,False,True,True,Sure same,1,3.141592653589793,227.8,2330.0,7.753623546559746,2022-06-16 04:46:08
122,Main,1,1,13,Graphic designer,True,p_AD,p_AB,True,False,True,Sure same,1,3.141592653589793,227.8,2300.0,7.7406644019172415,2022-06-16 04:46:08
123,Main,1,1,14,Graphic designer,True,p_AD,p_AD,True,True,True,Sure same,1,3.141592653589793,227.8,2345.0,7.76004068088038,2022-06-16 04:46:08
124,Main,1,1,15,Graphic designer,True,c_AB,c_AD,True,False,True,Sure same,1,3.141592653589793,227.8,2669.0,7.889459149404524,2022-06-16 04:46:08
125,Main,1,1,16,Graphic designer,True,z_AD,z_BD,True,False,False,Sure different,1,3.141592653589793,227.8,2853.0,7.9561263512135,2022-06-16 04:46:08
126,Main,1,1,17,Graphic designer,True,c_AD,c_BC,True,True,False,Sure same,0,0.0,227.8,3136.0,8.0507033814703,2022-06-16 04:46:08
127,Main,1,1,18,Graphic designer,True,j_AD,j_AD,True,True,True,Sure different,0,0.0,227.8,2823.0,7.945555428253489,2022-06-16 04:46:08
128,Main,1,1,19,Graphic designer,True,h_AD,h_AB,True,False,True,Sure different,0,0.0,227.8,2338.0,7.757051142032013,2022-06-16 04:46:08
129,Main,1,1,20,Graphic designer,True,b_AA,b_AA,False,True,True,Sure same,1,3.141592653589793,227.8,3585.0,8.184513753033722,2022-06-16 04:46:08
130,Main,1,1,21,Graphic designer,True,e_AA,e_AA,False,True,True,Sure same,1,3.141592653589793,227.8,1926.0,7.563200592358071,2022-06-16 04:46:08
131,Main,1,1,22,Graphic designer,True,n_AD,n_AD,True,True,True,Sure same,1,3.141592653589793,227.8,3089.0,8.035602692918582,2022-06-16 04:46:08
132,Main,1,1,23,Graphic designer,True,p_BD,p_AD,True,False,False,Sure same,0,0.0,227.8,2294.0,7.738052297689316,2022-06-16 04:46:08
133,Main,1,1,24,Graphic designer,True,h_AA,h_AA,False,True,True,Sure same,1,3.141592653589793,227.8,2082.0,7.641084249174914,2022-06-16 04:46:08
134,Main,1,1,25,Graphic designer,True,t_AD,t_AB,True,False,True,Sure different,0,0.0,227.8,2101.0,7.650168700845001,2022-06-16 04:46:08
135,Main,1,1,26,Graphic designer,True,z_AB,z_AD,True,False,True,Sure same,1,3.141592653589793,227.8,2616.0,7.86940171257709,2022-06-16 04:46:08
136,Main,1,1,27,Graphic designer,True,r_BC,r_AD,True,True,False,Sure same,0,0.0,227.8,2186.0,7.689828668736484,2022-06-16 04:46:08
137,Main,1,1,28,Graphic designer,True,a_AB,a_AD,True,False,True,Sure same,1,3.141592653589793,227.8,2152.0,7.674152921281675,2022-06-16 04:46:08
138,Main,1,1,29,Graphic designer,True,t_AA,t_DD,False,True,False,Sure different,1,3.141592653589793,227.8,3154.0,8.056426767522984,2022-06-16 04:46:08
139,Main,1,1,30,Graphic designer,True,r_AB,r_AD,True,False,True,Sure same,1,3.141592653589793,227.8,2800.0,7.937374696163295,2022-06-16 04:46:08
140,Main,1,1,31,Graphic designer,True,q_BC,q_AD,True,True,False,Sure same,0,0.0,227.8,2322.0,7.7501841622578365,2022-06-16 04:46:08
141,Main,1,1,32,Graphic designer,True,q_BD,q_AD,True,False,False,Sure same,0,0.0,227.8,2203.0,7.697575346802343,2022-06-16 04:46:08
142,Main,1,1,33,Graphic designer,True,z_DD,z_AA,False,True,False,Sure different,1,3.141592653589793,227.8,2904.0,7.973844375944687,2022-06-16 04:46:08
143,Main,1,1,34,Graphic designer,True,z_AD,z_AD,True,True,True,Sure same,1,3.141592653589793,227.8,2904.0,7.973844375944687,2022-06-16 04:46:08
144,Main,1,1,35,Graphic designer,True,e_BC,e_AD,True,True,False,Sure different,1,3.141592653589793,227.8,2671.0,7.890208213109961,2022-06-16 04:46:08
145,Main,1,1,36,Graphic designer,True,c_AA,c_AA,False,True,True,Sure same,1,3.141592653589793,227.8,2779.0,7.929846429742503,2022-06-16 04:46:08
146,Main,1,1,37,Graphic designer,True,j_DD,j_AA,False,True,False,Sure different,1,3.141592653589793,227.8,2670.0,7.8898337513942955,2022-06-16 04:46:08
147,Main,1,1,38,Graphic designer,True,q_AA,q_DD,False,True,False,Sure different,1,3.141592653589793,227.8,2957.0,7.9919305198524775,2022-06-16 04:46:08
148,Main,1,1,39,Graphic designer,True,t_AD,t_AD,True,True,True,Sure same,1,3.141592653589793,227.8,3067.0,8.028455164114252,2022-06-16 04:46:08
149,Main,1,1,40,Graphic designer,True,e_AA,e_DD,False,True,False,Sure same,0,0.0,227.8,3832.0,8.251142139090751,2022-06-16 04:46:08
150,Main,1,1,41,Graphic designer,True,a_AD,a_AD,True,True,True,Sure same,1,3.141592653589793,227.8,2615.0,7.869019376499023,2022-06-16 04:46:08
151,Main,1,1,42,Graphic designer,True,r_AD,r_BD,True,False,False,Sure same,0,0.0,227.8,2270.0,7.727535110475448,2022-06-16 04:46:08
152,Main,1,1,43,Graphic designer,True,e_AD,e_BD,True,False,False,Sure same,0,0.0,227.8,2496.0,7.822444729489319,2022-06-16 04:46:08
153,Main,1,1,44,Graphic designer,True,r_AA,r_AA,False,True,True,Sure same,1,3.141592653589793,227.8,2423.0,7.792761720816526,2022-06-16 04:46:08
154,Main,1,1,45,Graphic designer,True,p_DD,p_AA,False,True,False,Sure different,1,3.141592653589793,227.8,3094.0,8.037220031133012,2022-06-16 04:46:08
155,Main,1,1,46,Graphic designer,True,z_AD,z_BC,True,True,False,Sure same,0,0.0,227.8,3718.0,8.220941168281389,2022-06-16 04:46:08
156,Main,1,1,47,Graphic designer,True,a_BC,a_AD,True,True,False,Sure same,0,0.0,227.8,2500.0,7.824046010856292,2022-06-16 04:46:08
157,Main,1,1,48,Graphic designer,True,h_AA,h_DD,False,True,False,Sure different,1,3.141592653589793,227.8,2719.0,7.908019444632471,2022-06-16 04:46:08
158,Main,1,1,49,Graphic designer,True,j_AA,j_AA,False,True,True,Sure different,0,0.0,227.8,2408.0,7.786551806428712,2022-06-16 04:46:08
159,Main,1,1,50,Graphic designer,True,n_BD,n_AD,True,False,False,Sure different,1,3.141592653589793,227.8,3418.0,8.136810863675537,2022-06-16 04:46:08
160,Main,1,1,51,Graphic designer,True,h_BC,h_AD,True,True,False,Sure same,0,0.0,227.8,3014.0,8.01102337918644,2022-06-16 04:46:08
161,Main,1,1,52,Graphic designer,True,b_AB,b_AD,True,False,True,Sure same,1,3.141592653589793,227.8,2271.0,7.7279755421055585,2022-06-16 04:46:08
162,Main,1,1,53,Graphic designer,True,b_AD,b_AD,True,True,True,Sure same,1,3.141592653589793,227.8,2283.0,7.733245646529795,2022-06-16 04:46:08
163,Main,1,1,54,Graphic designer,True,q_AD,q_AB,True,False,True,Sure same,1,3.141592653589793,227.8,1987.0,7.594381242551817,2022-06-16 04:46:08
164,Main,1,1,55,Graphic designer,True,j_BC,j_AD,True,True,False,Sure different,1,3.141592653589793,227.8,2534.0,7.837554360881084,2022-06-16 04:46:08
165,Main,1,1,56,Graphic designer,True,n_AA,n_AA,False,True,True,Sure different,0,0.0,227.8,2035.0,7.618251097876695,2022-06-16 04:46:08
166,Main,1,1,57,Graphic designer,True,p_AD,p_BC,True,True,False,Sure same,0,0.0,227.8,2238.0,7.71333788887187,2022-06-16 04:46:08
167,Main,1,1,58,Graphic designer,True,e_AD,e_AD,True,True,True,Sure same,1,3.141592653589793,227.8,2226.0,7.70796153183549,2022-06-16 04:46:08
168,Main,1,1,59,Graphic designer,True,j_AB,j_AD,True,False,True,Sure same,1,3.141592653589793,227.8,2815.0,7.942717540573791,2022-06-16 04:46:08
169,Main,1,1,60,Graphic designer,True,c_AD,c_BD,True,False,False,Sure same,0,0.0,227.8,4002.0,8.294549515143679,2022-06-16 04:46:08
170,Main,1,1,61,Graphic designer,True,c_AD,c_AD,True,True,True,Sure same,1,3.141592653589793,227.8,2438.0,7.798933310041217,2022-06-16 04:46:08
171,Main,1,1,62,Graphic designer,True,n_AA,n_DD,False,True,False,Sure same,0,0.0,227.8,2259.0,7.7226775164680035,2022-06-16 04:46:08
172,Main,1,1,63,Graphic designer,True,h_AD,h_AD,True,True,True,Sure same,1,3.141592653589793,227.8,2149.0,7.67275789664251,2022-06-16 04:46:08
173,Main,1,1,64,Graphic designer,True,q_AA,q_AA,False,True,True,Sure same,1,3.141592653589793,227.8,2182.0,7.687997166393016,2022-06-16 04:46:08
174,Main,1,1,65,Graphic designer,True,n_AB,n_AD,True,False,True,Sure same,1,3.141592653589793,227.8,2100.0,7.649692623711514,2022-06-16 04:46:08
175,Main,1,1,66,Graphic designer,True,b_AD,b_BD,True,False,False,Sure same,0,0.0,227.8,2090.0,7.644919344958857,2022-06-16 04:46:08
176,Main,1,1,67,Graphic designer,True,e_AD,e_AB,True,False,True,Sure same,1,3.141592653589793,227.8,2315.0,7.747164966520335,2022-06-16 04:46:08
177,Main,1,1,68,Graphic designer,True,z_AA,z_AA,False,True,True,Sure same,1,3.141592653589793,227.8,2297.0,7.739359202689098,2022-06-16 04:46:08
178,Main,1,1,69,Graphic designer,True,r_DD,r_AA,False,True,False,Sure different,1,3.141592653589793,227.8,3031.0,8.016647877057803,2022-06-16 04:46:08
179,Main,1,1,70,Graphic designer,True,h_BD,h_AD,True,False,False,Sure same,0,0.0,227.8,2859.0,7.958227192322312,2022-06-16 04:46:08
180,Main,1,1,71,Graphic designer,True,n_AD,n_BC,True,True,False,Sure different,1,3.141592653589793,227.8,3015.0,8.011355109161286,2022-06-16 04:46:08
181,Main,1,1,72,Graphic designer,True,a_AA,a_AA,False,True,True,Sure same,1,3.141592653589793,227.8,2728.0,7.911324018963353,2022-06-16 04:46:08
182,Main,1,0,19,Graphic designer,True,u_AD,u_BD,True,False,False,Sure different,1,3.141592653589793,725.0,3488.0,8.15708378502887,2022-06-16 04:46:08
183,Main,1,0,20,Graphic designer,True,i_AD,i_AD,True,True,True,Sure same,1,3.141592653589793,800.0,3705.0,8.217438537730187,2022-06-16 04:46:08
184,Main,2,0,1,Graphic designer,True,d_BC,d_AD,True,True,False,Probably different,1,3.141592653589793,800.0,20091.0,9.90802723257816,2022-06-15 17:28:10
185,Main,2,0,2,Graphic designer,True,u_AA,u_DD,False,True,False,Probably different,1,3.141592653589793,800.0,4415.0,8.392763113038061,2022-06-15 17:28:10
186,Main,2,0,3,Graphic designer,True,d_AA,d_DD,False,True,False,Probably same,0,0.0,800.0,8368.0,9.032170186304704,2022-06-15 17:28:10
187,Main,2,0,4,Graphic designer,True,d_AA,d_AA,False,True,True,Probably different,0,0.0,725.0,3791.0,8.240385115516334,2022-06-15 17:28:10
188,Main,2,0,5,Graphic designer,True,i_AA,i_DD,False,True,False,Sure different,1,3.141592653589793,650.0,4049.0,8.30622521603216,2022-06-15 17:28:10
189,Main,2,0,6,Graphic designer,True,d_AD,d_BC,True,True,False,Sure different,1,3.141592653589793,575.0,3801.0,8.24301946898925,2022-06-15 17:28:10
190,Main,2,0,7,Graphic designer,True,i_BD,i_AD,True,False,False,Sure different,1,3.141592653589793,500.0,3220.0,8.077136638538454,2022-06-15 17:28:10
191,Main,2,0,8,Graphic designer,True,d_BD,d_AD,True,False,False,Probably different,1,3.141592653589793,425.0,5278.0,8.57130251706327,2022-06-15 17:28:10
192,Main,2,0,9,Graphic designer,True,u_AD,u_AB,True,False,True,Probably same,1,3.141592653589793,350.0,3507.0,8.162516250140179,2022-06-15 17:28:10
193,Main,2,0,10,Graphic designer,True,d_AD,d_AB,True,False,True,Probably same,1,3.141592653589793,275.0,3194.0,8.069029328774958,2022-06-15 17:28:10
194,Main,2,0,11,Graphic designer,True,u_BC,u_AD,True,True,False,Probably different,1,3.141592653589793,200.0,2859.0,7.958227192322312,2022-06-15 17:28:10
195,Main,2,0,12,Graphic designer,True,u_AA,u_AA,False,True,True,Probably same,1,3.141592653589793,200.0,3036.0,8.01829613851552,2022-06-15 17:28:10
196,Main,2,0,13,Graphic designer,True,i_BC,i_AD,True,True,False,Sure different,1,3.141592653589793,275.0,3229.0,8.079927770758275,2022-06-15 17:28:10
197,Main,2,0,14,Graphic designer,True,i_AB,i_AD,True,False,True,Probably same,1,3.141592653589793,350.0,4534.0,8.419359831067474,2022-06-15 17:28:10
198,Main,2,0,15,Graphic designer,True,u_AD,u_AD,True,True,True,Probably different,0,0.0,425.0,3769.0,8.234564993267135,2022-06-15 17:28:10
199,Main,2,0,16,Graphic designer,True,u_AA,u_DD,False,True,False,Sure different,1,3.141592653589793,500.0,4252.0,8.355144739461839,2022-06-15 17:28:10
200,Main,2,0,17,Graphic designer,True,d_AD,d_AD,True,True,True,Probably different,0,0.0,575.0,5580.0,8.626944055375356,2022-06-15 17:28:10
201,Main,2,0,18,Graphic designer,True,i_AA,i_AA,False,True,True,Probably same,1,3.141592653589793,650.0,4027.0,8.300776960851454,2022-06-15 17:28:10
202,Main,2,1,1,Graphic designer,True,e_AA,e_DD,False,True,False,Probably different,1,3.141592653589793,305.6,5328.0,8.580731212220226,2022-06-15 17:28:10
203,Main,2,1,2,Graphic designer,True,h_AA,h_AA,False,True,True,Probably different,0,0.0,305.6,3826.0,8.249575150000199,2022-06-15 17:28:10
204,Main,2,1,3,Graphic designer,True,c_AB,c_AD,True,False,True,Probably same,1,3.141592653589793,305.6,4016.0,8.298041661371565,2022-06-15 17:28:10
205,Main,2,1,4,Graphic designer,True,n_AD,n_BC,True,True,False,Probably same,0,0.0,305.6,2723.0,7.909489492673759,2022-06-15 17:28:10
206,Main,2,1,5,Graphic designer,True,q_AD,q_AB,True,False,True,Probably same,1,3.141592653589793,305.6,2755.0,7.9211727215870145,2022-06-15 17:28:10
207,Main,2,1,6,Graphic designer,True,b_DD,b_AA,False,True,False,Sure different,1,3.141592653589793,305.6,3004.0,8.007700012884026,2022-06-15 17:28:10
208,Main,2,1,7,Graphic designer,True,j_AD,j_BC,True,True,False,Sure different,1,3.141592653589793,305.6,2914.0,7.97728198675515,2022-06-15 17:28:10
209,Main,2,1,8,Graphic designer,True,e_AD,e_AD,True,True,True,Probably same,1,3.141592653589793,305.6,3116.0,8.044305406990638,2022-06-15 17:28:10
210,Main,2,1,9,Graphic designer,True,n_AA,n_AA,False,True,True,Probably same,1,3.141592653589793,305.6,2520.0,7.832014180505469,2022-06-15 17:28:10
211,Main,2,1,10,Graphic designer,True,t_AD,t_BD,True,False,False,Probably different,1,3.141592653589793,305.6,3206.0,8.072779333169498,2022-06-15 17:28:10
212,Main,2,1,11,Graphic designer,True,j_AA,j_DD,False,True,False,Sure different,1,3.141592653589793,305.6,3251.0,8.086717920303906,2022-06-15 17:28:10
213,Main,2,1,12,Graphic designer,True,c_AD,c_BC,True,True,False,Probably different,1,3.141592653589793,305.6,2905.0,7.974188669286011,2022-06-15 17:28:10
214,Main,2,1,13,Graphic designer,True,r_AD,r_AD,True,True,True,Sure same,1,3.141592653589793,305.6,3407.0,8.133587417660966,2022-06-15 17:28:10
215,Main,2,1,14,Graphic designer,True,b_AD,b_BC,True,True,False,Sure same,0,0.0,305.6,2724.0,7.909856667269403,2022-06-15 17:28:10
216,Main,2,1,15,Graphic designer,True,t_AB,t_AD,True,False,True,Probably same,1,3.141592653589793,305.6,4068.0,8.31090675716845,2022-06-15 17:28:10
217,Main,2,1,16,Graphic designer,True,n_DD,n_AA,False,True,False,Sure different,1,3.141592653589793,305.6,3061.0,8.026496938945412,2022-06-15 17:28:10
218,Main,2,1,17,Graphic designer,True,a_AA,a_DD,False,True,False,Sure different,1,3.141592653589793,305.6,3129.0,8.048468743668883,2022-06-15 17:28:10
219,Main,2,1,18,Graphic designer,True,a_AD,a_BD,True,False,False,Probably different,1,3.141592653589793,305.6,3140.0,8.0519780789023,2022-06-15 17:28:10
220,Main,2,1,19,Graphic designer,True,p_AB,p_AD,True,False,True,Probably same,1,3.141592653589793,305.6,3037.0,8.01862546504575,2022-06-15 17:28:10
221,Main,2,1,20,Graphic designer,True,z_AA,z_AA,False,True,True,Sure same,1,3.141592653589793,305.6,2936.0,7.984803389734406,2022-06-15 17:28:10
222,Main,2,1,21,Graphic designer,True,c_AA,c_AA,False,True,True,Probably different,0,0.0,305.6,3723.0,8.222285073872717,2022-06-15 17:28:10
223,Main,2,1,22,Graphic designer,True,b_AD,b_AD,True,True,True,Probably same,1,3.141592653589793,305.6,2869.0,7.9617188159813645,2022-06-15 17:28:10
224,Main,2,1,23,Graphic designer,True,h_AD,h_BC,True,True,False,Sure same,0,0.0,305.6,2936.0,7.984803389734406,2022-06-15 17:28:10
225,Main,2,1,24,Graphic designer,True,t_AA,t_AA,False,True,True,Sure same,1,3.141592653589793,305.6,2925.0,7.981049759665957,2022-06-15 17:28:10
226,Main,2,1,25,Graphic designer,True,r_AD,r_AB,True,False,True,Sure same,1,3.141592653589793,305.6,2397.0,7.781973234434385,2022-06-15 17:28:10
227,Main,2,1,26,Graphic designer,True,c_AA,c_DD,False,True,False,Sure different,1,3.141592653589793,305.6,3004.0,8.007700012884026,2022-06-15 17:28:10
228,Main,2,1,27,Graphic designer,True,t_BC,t_AD,True,True,False,Sure same,0,0.0,305.6,3161.0,8.058643712215618,2022-06-15 17:28:10
229,Main,2,1,28,Graphic designer,True,a_AB,a_AD,True,False,True,Sure same,1,3.141592653589793,305.6,2630.0,7.874739125171811,2022-06-15 17:28:10
230,Main,2,1,29,Graphic designer,True,r_AA,r_AA,False,True,True,Sure same,1,3.141592653589793,305.6,2432.0,7.796469243086058,2022-06-15 17:28:10
231,Main,2,1,30,Graphic designer,True,j_AD,j_AD,True,True,True,Sure same,1,3.141592653589793,305.6,2398.0,7.7823903355874595,2022-06-15 17:28:10
232,Main,2,1,31,Graphic designer,True,h_AB,h_AD,True,False,True,Sure same,1,3.141592653589793,305.6,2496.0,7.822444729489319,2022-06-15 17:28:10
233,Main,2,1,32,Graphic designer,True,a_AD,a_AD,True,True,True,Probably different,0,0.0,305.6,4095.0,8.31752199628717,2022-06-15 17:28:10
234,Main,2,1,33,Graphic designer,True,c_AD,c_AD,True,True,True,Probably different,0,0.0,305.6,2508.0,7.827240901752812,2022-06-15 17:28:10
235,Main,2,1,34,Graphic designer,True,n_AD,n_AB,True,False,True,Sure same,1,3.141592653589793,305.6,3061.0,8.026496938945412,2022-06-15 17:28:10
236,Main,2,1,35,Graphic designer,True,q_AD,q_BD,True,False,False,Sure same,0,0.0,305.6,2710.0,7.904703913873747,2022-06-15 17:28:10
237,Main,2,1,36,Graphic designer,True,t_DD,t_AA,False,True,False,Sure different,1,3.141592653589793,305.6,3836.0,8.252185436003328,2022-06-15 17:28:10
238,Main,2,1,37,Graphic designer,True,b_AB,b_AD,True,False,True,Sure same,1,3.141592653589793,305.6,2858.0,7.957877358489813,2022-06-15 17:28:10
239,Main,2,1,38,Graphic designer,True,z_DD,z_AA,False,True,False,Sure different,1,3.141592653589793,305.6,3387.0,8.127699852817772,2022-06-15 17:28:10
240,Main,2,1,39,Graphic designer,True,j_AD,j_BD,True,False,False,Probably different,1,3.141592653589793,305.6,3139.0,8.051659556841953,2022-06-15 17:28:10
241,Main,2,1,40,Graphic designer,True,q_AD,q_BC,True,True,False,Probably different,1,3.141592653589793,305.6,2879.0,7.965198290612176,2022-06-15 17:28:10
242,Main,2,1,41,Graphic designer,True,z_AD,z_AD,True,True,True,Sure same,1,3.141592653589793,305.6,3668.0,8.207401833376355,2022-06-15 17:28:10
243,Main,2,1,42,Graphic designer,True,q_AA,q_AA,False,True,True,Probably different,0,0.0,305.6,3162.0,8.058960017769417,2022-06-15 17:28:10
244,Main,2,1,43,Graphic designer,True,b_BD,b_AD,True,False,False,Probably same,0,0.0,305.6,2989.0,8.002694162283937,2022-06-15 17:28:10
245,Main,2,1,44,Graphic designer,True,t_AD,t_AD,True,True,True,Sure same,1,3.141592653589793,305.6,3040.0,8.019612794400267,2022-06-15 17:28:10
246,Main,2,1,45,Graphic designer,True,n_AD,n_AD,True,True,True,Sure same,1,3.141592653589793,305.6,2430.0,7.795646536334594,2022-06-15 17:28:10
247,Main,2,1,46,Graphic designer,True,j_AA,j_AA,False,True,True,Sure same,1,3.141592653589793,305.6,2576.0,7.853993087224244,2022-06-15 17:28:10
248,Main,2,1,47,Graphic designer,True,n_BD,n_AD,True,False,False,Probably different,1,3.141592653589793,305.6,3014.0,8.01102337918644,2022-06-15 17:28:10
249,Main,2,1,48,Graphic designer,True,p_DD,p_AA,False,True,False,Probably different,1,3.141592653589793,305.6,3354.0,8.117908942383155,2022-06-15 17:28:10
250,Main,2,1,49,Graphic designer,True,e_BD,e_AD,True,False,False,Sure same,0,0.0,305.6,2913.0,7.976938756959434,2022-06-15 17:28:10
251,Main,2,1,50,Graphic designer,True,h_AD,h_AD,True,True,True,Sure same,1,3.141592653589793,305.6,2622.0,7.871692664323645,2022-06-15 17:28:10
252,Main,2,1,51,Graphic designer,True,h_AA,h_DD,False,True,False,Sure same,0,0.0,305.6,2182.0,7.687997166393016,2022-06-15 17:28:10
253,Main,2,1,52,Graphic designer,True,z_BC,z_AD,True,True,False,Sure different,1,3.141592653589793,305.6,3072.0,8.030084094267563,2022-06-15 17:28:10
254,Main,2,1,53,Graphic designer,True,e_AA,e_AA,False,True,True,Sure same,1,3.141592653589793,305.6,2970.0,7.996317231796746,2022-06-15 17:28:10
255,Main,2,1,54,Graphic designer,True,r_BC,r_AD,True,True,False,Probably same,0,0.0,305.6,3880.0,8.263590432617319,2022-06-15 17:28:10
256,Main,2,1,55,Graphic designer,True,b_AA,b_AA,False,True,True,Probably same,1,3.141592653589793,305.6,2454.0,7.805474625270857,2022-06-15 17:28:10
257,Main,2,1,56,Graphic designer,True,h_AD,h_BD,True,False,False,Probably same,0,0.0,305.6,2440.0,7.799753318287247,2022-06-15 17:28:10
258,Main,2,1,57,Graphic designer,True,p_AA,p_AA,False,True,True,Sure same,1,3.141592653589793,305.6,2633.0,7.87587915949631,2022-06-15 17:28:10
259,Main,2,1,58,Graphic designer,True,p_AD,p_BC,True,True,False,Sure different,1,3.141592653589793,305.6,3049.0,8.022568946988255,2022-06-15 17:28:10
260,Main,2,1,59,Graphic designer,True,e_BC,e_AD,True,True,False,Sure same,0,0.0,305.6,3262.0,8.09009578318096,2022-06-15 17:28:10
261,Main,2,1,60,Graphic designer,True,z_AD,z_AB,True,False,True,Probably same,1,3.141592653589793,305.6,2948.0,7.988882253309227,2022-06-15 17:28:10
262,Main,2,1,61,Graphic designer,True,j_AD,j_AB,True,False,True,Probably same,1,3.141592653589793,305.6,2959.0,7.99260665240021,2022-06-15 17:28:10
263,Main,2,1,62,Graphic designer,True,r_DD,r_AA,False,True,False,Probably different,1,3.141592653589793,305.6,2745.0,7.917536353943631,2022-06-15 17:28:10
264,Main,2,1,63,Graphic designer,True,e_AB,e_AD,True,False,True,Probably same,1,3.141592653589793,305.6,3194.0,8.069029328774958,2022-06-15 17:28:10
265,Main,2,1,64,Graphic designer,True,p_BD,p_AD,True,False,False,Probably different,1,3.141592653589793,305.6,2916.0,7.977968093128549,2022-06-15 17:28:10
266,Main,2,1,65,Graphic designer,True,a_AA,a_AA,False,True,True,Probably different,0,0.0,305.6,2890.0,7.969011781106478,2022-06-15 17:28:10
267,Main,2,1,66,Graphic designer,True,q_AD,q_AD,True,True,True,Sure same,1,3.141592653589793,305.6,2812.0,7.941651252930556,2022-06-15 17:28:10
268,Main,2,1,67,Graphic designer,True,q_DD,q_AA,False,True,False,Probably different,1,3.141592653589793,305.6,2768.0,7.92588031673756,2022-06-15 17:28:10
269,Main,2,1,68,Graphic designer,True,c_AD,c_BD,True,False,False,Sure same,0,0.0,305.6,3038.0,8.018954683155718,2022-06-15 17:28:10
270,Main,2,1,69,Graphic designer,True,a_BC,a_AD,True,True,False,Sure same,0,0.0,305.6,2328.0,7.752764808851328,2022-06-15 17:28:10
271,Main,2,1,70,Graphic designer,True,z_AD,z_BD,True,False,False,Sure different,1,3.141592653589793,305.6,3161.0,8.058643712215618,2022-06-15 17:28:10
272,Main,2,1,71,Graphic designer,True,p_AD,p_AD,True,True,True,Sure same,1,3.141592653589793,305.6,3116.0,8.044305406990638,2022-06-15 17:28:10
273,Main,2,1,72,Graphic designer,True,r_BD,r_AD,True,False,False,Sure same,0,0.0,305.6,2857.0,7.957527402230773,2022-06-15 17:28:10
274,Main,2,0,19,Graphic designer,True,u_BD,u_AD,True,False,False,Sure different,1,3.141592653589793,725.0,3869.0,8.260751354700513,2022-06-15 17:28:10
275,Main,2,0,20,Graphic designer,True,i_AD,i_AD,True,True,True,Sure same,1,3.141592653589793,800.0,4726.0,8.460834457746854,2022-06-15 17:28:10
276,Main,3,0,1,Other designer,True,d_AD,d_BC,True,True,False,Probably same,0,0.0,800.0,8332.0,9.027858802380862,2022-06-15 14:02:35
277,Main,3,0,2,Other designer,True,u_AA,u_DD,False,True,False,Sure different,1,3.141592653589793,800.0,4031.0,8.301769763117166,2022-06-15 14:02:35
278,Main,3,0,3,Other designer,True,d_AA,d_DD,False,True,False,Sure different,1,3.141592653589793,800.0,3578.0,8.182559264068665,2022-06-15 14:02:35
279,Main,3,0,4,Other designer,True,d_AA,d_AA,False,True,True,Sure same,1,3.141592653589793,725.0,3417.0,8.136518252115291,2022-06-15 14:02:35
280,Main,3,0,5,Other designer,True,i_DD,i_AA,False,True,False,Sure different,1,3.141592653589793,650.0,3276.0,8.09437844497296,2022-06-15 14:02:35
281,Main,3,0,6,Other designer,True,d_AD,d_BC,True,True,False,Sure same,0,0.0,575.0,3226.0,8.078998258685154,2022-06-15 14:02:35
282,Main,3,0,7,Other designer,True,i_BD,i_AD,True,False,False,Probably different,1,3.141592653589793,500.0,3752.0,8.230044310126114,2022-06-15 14:02:35
283,Main,3,0,8,Other designer,True,d_BD,d_AD,True,False,False,Probably different,1,3.141592653589793,425.0,4332.0,8.37378460812088,2022-06-15 14:02:35
284,Main,3,0,9,Other designer,True,u_AB,u_AD,True,False,True,Probably same,1,3.141592653589793,350.0,4430.0,8.39615486303918,2022-06-15 14:02:35
285,Main,3,0,10,Other designer,True,d_AD,d_AB,True,False,True,Probably same,1,3.141592653589793,275.0,3844.0,8.254268770090183,2022-06-15 14:02:35
286,Main,3,0,11,Other designer,True,u_AD,u_BC,True,True,False,Probably different,1,3.141592653589793,200.0,2767.0,7.925518979786926,2022-06-15 14:02:35
287,Main,3,0,12,Other designer,True,u_AA,u_AA,False,True,True,Probably different,0,0.0,200.0,2942.0,7.9868449011613825,2022-06-15 14:02:35
288,Main,3,0,13,Other designer,True,i_AD,i_BC,True,True,False,Probably same,0,0.0,275.0,3148.0,8.054522609537294,2022-06-15 14:02:35
289,Main,3,0,14,Other designer,True,i_AD,i_AB,True,False,True,Sure same,1,3.141592653589793,350.0,3386.0,8.12740456269308,2022-06-15 14:02:35
290,Main,3,0,15,Other designer,True,u_AD,u_AD,True,True,True,Probably same,1,3.141592653589793,425.0,2908.0,7.97522083865341,2022-06-15 14:02:35
291,Main,3,0,16,Other designer,True,u_DD,u_AA,False,True,False,Sure different,1,3.141592653589793,500.0,2891.0,7.969357742016346,2022-06-15 14:02:35
292,Main,3,0,17,Other designer,True,d_AD,d_AD,True,True,True,Probably different,0,0.0,575.0,6308.0,8.74957394808293,2022-06-15 14:02:35
293,Main,3,0,18,Other designer,True,i_AA,i_AA,False,True,True,Sure same,1,3.141592653589793,650.0,4126.0,8.325063693631197,2022-06-15 14:02:35
294,Main,3,1,1,Other designer,True,h_AD,h_BC,True,True,False,Sure same,0,0.0,305.6,5345.0,8.583916823459145,2022-06-15 14:02:35
295,Main,3,1,2,Other designer,True,t_AA,t_AA,False,True,True,Probably same,1,3.141592653589793,305.6,2861.0,7.95892649305011,2022-06-15 14:02:35
296,Main,3,1,3,Other designer,True,q_AD,q_BC,True,True,False,Probably same,0,0.0,305.6,2892.0,7.969703583278656,2022-06-15 14:02:35
297,Main,3,1,4,Other designer,True,p_BD,p_AD,True,False,False,Probably same,0,0.0,305.6,3089.0,8.035602692918582,2022-06-15 14:02:35
298,Main,3,1,5,Other designer,True,h_AA,h_AA,False,True,True,Probably same,1,3.141592653589793,305.6,2539.0,7.839525581704678,2022-06-15 14:02:35
299,Main,3,1,6,Other designer,True,z_AD,z_AD,True,True,True,Probably same,1,3.141592653589793,305.6,2715.0,7.906547232368036,2022-06-15 14:02:35
300,Main,3,1,7,Other designer,True,c_AD,c_BD,True,False,False,Probably same,0,0.0,305.6,2605.0,7.865187954187467,2022-06-15 14:02:35
301,Main,3,1,8,Other designer,True,t_BD,t_AD,True,False,False,Probably same,0,0.0,305.6,2666.0,7.888334500738654,2022-06-15 14:02:35
302,Main,3,1,9,Other designer,True,b_AA,b_AA,False,True,True,Sure same,1,3.141592653589793,305.6,2905.0,7.974188669286011,2022-06-15 14:02:35
303,Main,3,1,10,Other designer,True,r_AD,r_AD,True,True,True,Probably same,1,3.141592653589793,305.6,2897.0,7.9714309977693505,2022-06-15 14:02:35
304,Main,3,1,11,Other designer,True,j_AA,j_AA,False,True,True,Sure same,1,3.141592653589793,305.6,5505.0,8.61341204915678,2022-06-15 14:02:35
305,Main,3,1,12,Other designer,True,c_AB,c_AD,True,False,True,Probably same,1,3.141592653589793,305.6,4823.0,8.481151420068972,2022-06-15 14:02:35
306,Main,3,1,13,Other designer,True,h_AA,h_DD,False,True,False,Sure different,1,3.141592653589793,305.6,3137.0,8.051022208190679,2022-06-15 14:02:35
307,Main,3,1,14,Other designer,True,c_AD,c_AD,True,True,True,Probably same,1,3.141592653589793,305.6,2879.0,7.965198290612176,2022-06-15 14:02:35
308,Main,3,1,15,Other designer,True,b_AD,b_AB,True,False,True,Probably same,1,3.141592653589793,305.6,2878.0,7.964850887447313,2022-06-15 14:02:35
309,Main,3,1,16,Other designer,True,p_DD,p_AA,False,True,False,Sure different,1,3.141592653589793,305.6,2965.0,7.994632311431825,2022-06-15 14:02:35
310,Main,3,1,17,Other designer,True,r_BC,r_AD,True,True,False,Probably same,0,0.0,305.6,3016.0,8.011686729127847,2022-06-15 14:02:35
311,Main,3,1,18,Other designer,True,t_AB,t_AD,True,False,True,Probably same,1,3.141592653589793,305.6,2559.0,7.847371836159788,2022-06-15 14:02:35
312,Main,3,1,19,Other designer,True,b_BD,b_AD,True,False,False,Sure different,1,3.141592653589793,305.6,2861.0,7.95892649305011,2022-06-15 14:02:35
313,Main,3,1,20,Other designer,True,c_AA,c_AA,False,True,True,Sure different,0,0.0,305.6,3242.0,8.08394570229562,2022-06-15 14:02:35
314,Main,3,1,21,Other designer,True,q_AD,q_AB,True,False,True,Sure same,1,3.141592653589793,305.6,3042.0,8.020270472819238,2022-06-15 14:02:35
315,Main,3,1,22,Other designer,True,t_AD,t_BC,True,True,False,Probably same,0,0.0,305.6,2571.0,7.852050207265889,2022-06-15 14:02:35
316,Main,3,1,23,Other designer,True,n_AD,n_AB,True,False,True,Probably same,1,3.141592653589793,305.6,3287.0,8.097730573664219,2022-06-15 14:02:35
317,Main,3,1,24,Other designer,True,n_AA,n_AA,False,True,True,Probably same,1,3.141592653589793,305.6,2643.0,7.879669914604289,2022-06-15 14:02:35
318,Main,3,1,25,Other designer,True,q_AD,q_AD,True,True,True,Probably same,1,3.141592653589793,305.6,2592.0,7.860185057472165,2022-06-15 14:02:35
319,Main,3,1,26,Other designer,True,j_BD,j_AD,True,False,False,Sure different,1,3.141592653589793,305.6,3080.0,8.03268487596762,2022-06-15 14:02:35
320,Main,3,1,27,Other designer,True,n_DD,n_AA,False,True,False,Sure different,1,3.141592653589793,305.6,3153.0,8.056109659545061,2022-06-15 14:02:35
321,Main,3,1,28,Other designer,True,h_AB,h_AD,True,False,True,Probably different,0,0.0,305.6,3433.0,8.141189793457691,2022-06-15 14:02:35
322,Main,3,1,29,Other designer,True,a_AA,a_DD,False,True,False,Probably different,1,3.141592653589793,305.6,4214.0,8.346167594364134,2022-06-15 14:02:35
323,Main,3,1,30,Other designer,True,j_DD,j_AA,False,True,False,Sure different,1,3.141592653589793,305.6,2933.0,7.983781068977451,2022-06-15 14:02:35
324,Main,3,1,31,Other designer,True,e_AA,e_AA,False,True,True,Sure same,1,3.141592653589793,305.6,3211.0,8.074337694089515,2022-06-15 14:02:35
325,Main,3,1,32,Other designer,True,z_AB,z_AD,True,False,True,Sure same,1,3.141592653589793,305.6,2751.0,7.919719760924575,2022-06-15 14:02:35
326,Main,3,1,33,Other designer,True,j_AD,j_AD,True,True,True,Sure same,1,3.141592653589793,305.6,3053.0,8.023879992734878,2022-06-15 14:02:35
327,Main,3,1,34,Other designer,True,p_AA,p_AA,False,True,True,Probably same,1,3.141592653589793,305.6,2740.0,7.9157131993821155,2022-06-15 14:02:35
328,Main,3,1,35,Other designer,True,p_AD,p_BC,True,True,False,Probably different,1,3.141592653589793,305.6,2802.0,7.938088726896952,2022-06-15 14:02:35
329,Main,3,1,36,Other designer,True,p_AB,p_AD,True,False,True,Probably same,1,3.141592653589793,305.6,2862.0,7.959275960116396,2022-06-15 14:02:35
330,Main,3,1,37,Other designer,True,n_AD,n_BD,True,False,False,Sure same,0,0.0,305.6,3877.0,8.262816937670928,2022-06-15 14:02:35
331,Main,3,1,38,Other designer,True,a_AA,a_AA,False,True,True,Sure same,1,3.141592653589793,305.6,2366.0,7.768956044538332,2022-06-15 14:02:35
332,Main,3,1,39,Other designer,True,a_AD,a_BC,True,True,False,Sure same,0,0.0,305.6,2536.0,7.8383433155571165,2022-06-15 14:02:35
333,Main,3,1,40,Other designer,True,r_BD,r_AD,True,False,False,Sure same,0,0.0,305.6,2410.0,7.787382026484701,2022-06-15 14:02:35
334,Main,3,1,41,Other designer,True,e_AD,e_BD,True,False,False,Sure same,0,0.0,305.6,2787.0,7.932721027481948,2022-06-15 14:02:35
335,Main,3,1,42,Other designer,True,q_AD,q_BD,True,False,False,Sure same,0,0.0,305.6,2658.0,7.885329239273191,2022-06-15 14:02:35
336,Main,3,1,43,Other designer,True,r_AA,r_DD,False,True,False,Sure different,1,3.141592653589793,305.6,2897.0,7.9714309977693505,2022-06-15 14:02:35
337,Main,3,1,44,Other designer,True,e_DD,e_AA,False,True,False,Sure same,0,0.0,305.6,2886.0,7.9676267393338165,2022-06-15 14:02:35
338,Main,3,1,45,Other designer,True,t_AD,t_AD,True,True,True,Sure same,1,3.141592653589793,305.6,2741.0,7.916078096302786,2022-06-15 14:02:35
339,Main,3,1,46,Other designer,True,j_AB,j_AD,True,False,True,Sure same,1,3.141592653589793,305.6,2285.0,7.734121303328305,2022-06-15 14:02:35
340,Main,3,1,47,Other designer,True,h_AD,h_AD,True,True,True,Sure same,1,3.141592653589793,305.6,2496.0,7.822444729489319,2022-06-15 14:02:35
341,Main,3,1,48,Other designer,True,r_AB,r_AD,True,False,True,Sure same,1,3.141592653589793,305.6,2447.0,7.802618063442671,2022-06-15 14:02:35
342,Main,3,1,49,Other designer,True,b_AD,b_BC,True,True,False,Sure same,0,0.0,305.6,2699.0,7.900636613018005,2022-06-15 14:02:35
343,Main,3,1,50,Other designer,True,a_AD,a_BD,True,False,False,Sure same,0,0.0,305.6,2422.0,7.792348924113037,2022-06-15 14:02:35
344,Main,3,1,51,Other designer,True,e_AD,e_AB,True,False,True,Sure same,1,3.141592653589793,305.6,2480.0,7.8160138391590275,2022-06-15 14:02:35
345,Main,3,1,52,Other designer,True,p_AD,p_AD,True,True,True,Probably same,1,3.141592653589793,305.6,2580.0,7.855544677915663,2022-06-15 14:02:35
346,Main,3,1,53,Other designer,True,j_AD,j_BC,True,True,False,Sure different,1,3.141592653589793,305.6,2857.0,7.957527402230773,2022-06-15 14:02:35
347,Main,3,1,54,Other designer,True,a_AB,a_AD,True,False,True,Probably same,1,3.141592653589793,305.6,2871.0,7.962415680121064,2022-06-15 14:02:35
348,Main,3,1,55,Other designer,True,c_AD,c_BC,True,True,False,Probably different,1,3.141592653589793,305.6,2875.0,7.963807953231451,2022-06-15 14:02:35
349,Main,3,1,56,Other designer,True,e_AD,e_AD,True,True,True,Sure same,1,3.141592653589793,305.6,2923.0,7.980365765111246,2022-06-15 14:02:35
350,Main,3,1,57,Other designer,True,r_AA,r_AA,False,True,True,Probably same,1,3.141592653589793,305.6,2741.0,7.916078096302786,2022-06-15 14:02:35
351,Main,3,1,58,Other designer,True,a_AD,a_AD,True,True,True,Probably different,0,0.0,305.6,2962.0,7.993619994827744,2022-06-15 14:02:35
352,Main,3,1,59,Other designer,True,q_AA,q_AA,False,True,True,Probably same,1,3.141592653589793,305.6,2594.0,7.860956364876389,2022-06-15 14:02:35
353,Main,3,1,60,Other designer,True,q_DD,q_AA,False,True,False,Sure different,1,3.141592653589793,305.6,3092.0,8.036573409707312,2022-06-15 14:02:35
354,Main,3,1,61,Other designer,True,z_BD,z_AD,True,False,False,Sure different,1,3.141592653589793,305.6,2951.0,7.989899374942939,2022-06-15 14:02:35
355,Main,3,1,62,Other designer,True,h_AD,h_BD,True,False,False,Sure different,1,3.141592653589793,305.6,2783.0,7.931284761525891,2022-06-15 14:02:35
356,Main,3,1,63,Other designer,True,e_AD,e_BC,True,True,False,Probably different,1,3.141592653589793,305.6,2629.0,7.874358824729881,2022-06-15 14:02:35
357,Main,3,1,64,Other designer,True,c_DD,c_AA,False,True,False,Sure different,1,3.141592653589793,305.6,2859.0,7.958227192322312,2022-06-15 14:02:35
358,Main,3,1,65,Other designer,True,t_AA,t_DD,False,True,False,Sure different,1,3.141592653589793,305.6,2491.0,7.820439515262181,2022-06-15 14:02:35
359,Main,3,1,66,Other designer,True,n_AD,n_AD,True,True,True,Sure same,1,3.141592653589793,305.6,2804.0,7.938802248154481,2022-06-15 14:02:35
360,Main,3,1,67,Other designer,True,z_AA,z_AA,False,True,True,Sure same,1,3.141592653589793,305.6,2427.0,7.794411205726601,2022-06-15 14:02:35
361,Main,3,1,68,Other designer,True,z_BC,z_AD,True,True,False,Sure different,1,3.141592653589793,305.6,2418.0,7.790696031174738,2022-06-15 14:02:35
362,Main,3,1,69,Other designer,True,b_AD,b_AD,True,True,True,Probably same,1,3.141592653589793,305.6,2838.0,7.950854857719988,2022-06-15 14:02:35
363,Main,3,1,70,Other designer,True,z_DD,z_AA,False,True,False,Sure different,1,3.141592653589793,305.6,2401.0,7.783640596221253,2022-06-15 14:02:35
364,Main,3,1,71,Other designer,True,n_BC,n_AD,True,True,False,Probably same,0,0.0,305.6,3317.0,8.106816038947052,2022-06-15 14:02:35
365,Main,3,1,72,Other designer,True,b_AA,b_DD,False,True,False,Sure different,1,3.141592653589793,305.6,2688.0,7.89655270164304,2022-06-15 14:02:35
366,Main,3,0,19,Other designer,True,u_BD,u_AD,True,False,False,Sure different,1,3.141592653589793,725.0,3449.0,8.145839612936841,2022-06-15 14:02:35
367,Main,3,0,20,Other designer,True,i_AD,i_AD,True,True,True,Sure same,1,3.141592653589793,800.0,3847.0,8.255048902752295,2022-06-15 14:02:35
368,Main,4,0,1,Graphic designer,True,d_AD,d_BC,True,True,False,Probably different,1,3.141592653589793,800.0,7526.0,8.926118971153382,2022-06-15 13:54:17
369,Main,4,0,2,Graphic designer,True,u_AA,u_DD,False,True,False,Sure different,1,3.141592653589793,800.0,3591.0,8.186185994226083,2022-06-15 13:54:17
370,Main,4,0,3,Graphic designer,True,d_AA,d_DD,False,True,False,Sure different,1,3.141592653589793,800.0,3590.0,8.185907481482324,2022-06-15 13:54:17
371,Main,4,0,4,Graphic designer,True,d_AA,d_AA,False,True,True,Sure same,1,3.141592653589793,725.0,3725.0,8.22282213081366,2022-06-15 13:54:17
372,Main,4,0,5,Graphic designer,True,i_AA,i_DD,False,True,False,Sure different,1,3.141592653589793,650.0,3944.0,8.279950715722526,2022-06-15 13:54:17
373,Main,4,0,6,Graphic designer,True,d_AD,d_BC,True,True,False,Sure different,1,3.141592653589793,575.0,3885.0,8.264878262801748,2022-06-15 13:54:17
374,Main,4,0,7,Graphic designer,True,i_AD,i_BD,True,False,False,Probably same,0,0.0,500.0,3897.0,8.26796230533871,2022-06-15 13:54:17
375,Main,4,0,8,Graphic designer,True,d_AD,d_BD,True,False,False,Probably different,1,3.141592653589793,425.0,3616.0,8.193123721512068,2022-06-15 13:54:17
376,Main,4,0,9,Graphic designer,True,u_AD,u_AB,True,False,True,Probably same,1,3.141592653589793,350.0,3767.0,8.23403420769204,2022-06-15 13:54:17
377,Main,4,0,10,Graphic designer,True,d_AB,d_AD,True,False,True,Sure same,1,3.141592653589793,275.0,3290.0,8.098642843759418,2022-06-15 13:54:17
378,Main,4,0,11,Graphic designer,True,u_AD,u_BC,True,True,False,Probably same,0,0.0,200.0,2893.0,7.970049304976135,2022-06-15 13:54:17
379,Main,4,0,12,Graphic designer,True,u_AA,u_AA,False,True,True,Sure same,1,3.141592653589793,200.0,2777.0,7.9291264873067995,2022-06-15 13:54:17
380,Main,4,0,13,Graphic designer,True,i_AD,i_BC,True,True,False,Probably same,0,0.0,275.0,2691.0,7.897668150726906,2022-06-15 13:54:17
381,Main,4,0,14,Graphic designer,True,i_AD,i_AB,True,False,True,Sure same,1,3.141592653589793,350.0,-1322.0,,2022-06-15 13:54:17
382,Main,4,0,15,Graphic designer,True,u_AD,u_AD,True,True,True,Sure same,1,3.141592653589793,425.0,2717.0,7.907283609426348,2022-06-15 13:54:17
383,Main,4,0,16,Graphic designer,True,u_DD,u_AA,False,True,False,Sure different,1,3.141592653589793,500.0,3034.0,8.017637159908478,2022-06-15 13:54:17
384,Main,4,0,17,Graphic designer,True,d_AD,d_AD,True,True,True,Sure same,1,3.141592653589793,575.0,3162.0,8.058960017769417,2022-06-15 13:54:17
385,Main,4,0,18,Graphic designer,True,i_AA,i_AA,False,True,True,Sure same,1,3.141592653589793,650.0,3318.0,8.10711747075039,2022-06-15 13:54:17
386,Main,4,1,1,Graphic designer,True,z_AD,z_BC,True,True,False,Sure different,1,3.141592653589793,266.7,5178.0,8.552174160311482,2022-06-15 13:54:17
387,Main,4,1,2,Graphic designer,True,t_BD,t_AD,True,False,False,Sure same,0,0.0,266.7,3058.0,8.025516386489008,2022-06-15 13:54:17
388,Main,4,1,3,Graphic designer,True,q_AD,q_AB,True,False,True,Sure same,1,3.141592653589793,266.7,2677.0,7.892452043520352,2022-06-15 13:54:17
389,Main,4,1,4,Graphic designer,True,b_BC,b_AD,True,True,False,Sure different,1,3.141592653589793,266.7,2702.0,7.9017475185201445,2022-06-15 13:54:17
390,Main,4,1,5,Graphic designer,True,p_AB,p_AD,True,False,True,Sure same,1,3.141592653589793,266.7,2878.0,7.964850887447313,2022-06-15 13:54:17
391,Main,4,1,6,Graphic designer,True,z_AA,z_AA,False,True,True,Sure same,1,3.141592653589793,266.7,2543.0,7.841099765422119,2022-06-15 13:54:17
392,Main,4,1,7,Graphic designer,True,a_AD,a_AB,True,False,True,Sure same,1,3.141592653589793,266.7,2487.0,7.818832443803404,2022-06-15 13:54:17
393,Main,4,1,8,Graphic designer,True,e_DD,e_AA,False,True,False,Sure different,1,3.141592653589793,266.7,2646.0,7.880804344674901,2022-06-15 13:54:17
394,Main,4,1,9,Graphic designer,True,c_BD,c_AD,True,False,False,Sure same,0,0.0,266.7,3123.0,8.046549357283078,2022-06-15 13:54:17
395,Main,4,1,10,Graphic designer,True,a_AA,a_AA,False,True,True,Sure same,1,3.141592653589793,266.7,2430.0,7.795646536334594,2022-06-15 13:54:17
396,Main,4,1,11,Graphic designer,True,h_AD,h_BD,True,False,False,Sure different,1,3.141592653589793,266.7,3044.0,8.020927718981577,2022-06-15 13:54:17
397,Main,4,1,12,Graphic designer,True,e_AD,e_BC,True,True,False,Sure same,0,0.0,266.7,2703.0,7.902117546276448,2022-06-15 13:54:17
398,Main,4,1,13,Graphic designer,True,c_AD,c_AB,True,False,True,Sure same,1,3.141592653589793,266.7,2629.0,7.874358824729881,2022-06-15 13:54:17
399,Main,4,1,14,Graphic designer,True,z_BD,z_AD,True,False,False,Sure different,1,3.141592653589793,266.7,2972.0,7.99699040583765,2022-06-15 13:54:17
400,Main,4,1,15,Graphic designer,True,q_AD,q_BC,True,True,False,Probably different,1,3.141592653589793,266.7,3117.0,8.044626279767337,2022-06-15 13:54:17
401,Main,4,1,16,Graphic designer,True,r_AB,r_AD,True,False,True,Sure same,1,3.141592653589793,266.7,2771.0,7.9269635448629785,2022-06-15 13:54:17
402,Main,4,1,17,Graphic designer,True,j_AA,j_AA,False,True,True,Sure same,1,3.141592653589793,266.7,2772.0,7.927324360309794,2022-06-15 13:54:17
403,Main,4,1,18,Graphic designer,True,r_DD,r_AA,False,True,False,Sure different,1,3.141592653589793,266.7,2908.0,7.97522083865341,2022-06-15 13:54:17
404,Main,4,1,19,Graphic designer,True,e_AD,e_AD,True,True,True,Sure same,1,3.141592653589793,266.7,2734.0,7.913521017283895,2022-06-15 13:54:17
405,Main,4,1,20,Graphic designer,True,n_AD,n_BD,True,False,False,Sure different,1,3.141592653589793,266.7,3178.0,8.064007347096661,2022-06-15 13:54:17
406,Main,4,1,21,Graphic designer,True,j_AD,j_BC,True,True,False,Sure different,1,3.141592653589793,266.7,3163.0,8.059276223305648,2022-06-15 13:54:17
407,Main,4,1,22,Graphic designer,True,r_AD,r_AD,True,True,True,Sure same,1,3.141592653589793,266.7,3412.0,8.13505390861157,2022-06-15 13:54:17
408,Main,4,1,23,Graphic designer,True,h_AA,h_AA,False,True,True,Probably same,1,3.141592653589793,266.7,3111.0,8.042699496897637,2022-06-15 13:54:17
409,Main,4,1,24,Graphic designer,True,p_DD,p_AA,False,True,False,Sure different,1,3.141592653589793,266.7,2949.0,7.989221408815276,2022-06-15 13:54:17
410,Main,4,1,25,Graphic designer,True,r_AD,r_BD,True,False,False,Probably different,1,3.141592653589793,266.7,3320.0,8.107720061910534,2022-06-15 13:54:17
411,Main,4,1,26,Graphic designer,True,c_AA,c_AA,False,True,True,Sure same,1,3.141592653589793,266.7,2956.0,7.991592282068092,2022-06-15 13:54:17
412,Main,4,1,27,Graphic designer,True,e_AA,e_AA,False,True,True,Sure same,1,3.141592653589793,266.7,2489.0,7.819636302367592,2022-06-15 13:54:17
413,Main,4,1,28,Graphic designer,True,j_DD,j_AA,False,True,False,Sure different,1,3.141592653589793,266.7,3239.0,8.08301991917133,2022-06-15 13:54:17
414,Main,4,1,29,Graphic designer,True,b_BD,b_AD,True,False,False,Sure different,1,3.141592653589793,266.7,2864.0,7.9599745280805365,2022-06-15 13:54:17
415,Main,4,1,30,Graphic designer,True,r_AA,r_AA,False,True,True,Probably same,1,3.141592653589793,266.7,3230.0,8.080237416216702,2022-06-15 13:54:17
416,Main,4,1,31,Graphic designer,True,p_AD,p_BD,True,False,False,Sure different,1,3.141592653589793,266.7,2925.0,7.981049759665957,2022-06-15 13:54:17
417,Main,4,1,32,Graphic designer,True,b_AB,b_AD,True,False,True,Sure same,1,3.141592653589793,266.7,2908.0,7.97522083865341,2022-06-15 13:54:17
418,Main,4,1,33,Graphic designer,True,z_AD,z_AB,True,False,True,Sure same,1,3.141592653589793,266.7,2875.0,7.963807953231451,2022-06-15 13:54:17
419,Main,4,1,34,Graphic designer,True,t_AD,t_AB,True,False,True,Sure same,1,3.141592653589793,266.7,2387.0,7.77779262633883,2022-06-15 13:54:17
420,Main,4,1,35,Graphic designer,True,q_AD,q_AD,True,True,True,Sure same,1,3.141592653589793,266.7,2439.0,7.79934339821592,2022-06-15 13:54:17
421,Main,4,1,36,Graphic designer,True,e_AD,e_BD,True,False,False,Probably same,0,0.0,266.7,2921.0,7.979681302387741,2022-06-15 13:54:17
422,Main,4,1,37,Graphic designer,True,n_AD,n_AD,True,True,True,Sure same,1,3.141592653589793,266.7,2895.0,7.970740390007095,2022-06-15 13:54:17
423,Main,4,1,38,Graphic designer,True,b_AD,b_AD,True,True,True,Sure same,1,3.141592653589793,266.7,2606.0,7.8655717576847906,2022-06-15 13:54:17
424,Main,4,1,39,Graphic designer,True,c_BC,c_AD,True,True,False,Probably same,0,0.0,266.7,2778.0,7.9294865233142895,2022-06-15 13:54:17
425,Main,4,1,40,Graphic designer,True,j_AD,j_AD,True,True,True,Sure same,1,3.141592653589793,266.7,2916.0,7.977968093128549,2022-06-15 13:54:17
426,Main,4,1,41,Graphic designer,True,r_AD,r_BC,True,True,False,Probably same,0,0.0,266.7,2590.0,7.859413154693583,2022-06-15 13:54:17
427,Main,4,1,42,Graphic designer,True,j_AB,j_AD,True,False,True,Probably same,1,3.141592653589793,266.7,3200.0,8.070906088787819,2022-06-15 13:54:17
428,Main,4,1,43,Graphic designer,True,z_AD,z_AD,True,True,True,Probably different,0,0.0,266.7,3636.0,8.19863945529737,2022-06-15 13:54:17
429,Main,4,1,44,Graphic designer,True,q_AA,q_DD,False,True,False,Sure different,1,3.141592653589793,266.7,2729.0,7.911690520708339,2022-06-15 13:54:17
430,Main,4,1,45,Graphic designer,True,h_BC,h_AD,True,True,False,Sure different,1,3.141592653589793,266.7,2991.0,8.003363058629947,2022-06-15 13:54:17
431,Main,4,1,46,Graphic designer,True,a_AD,a_AD,True,True,True,Probably same,1,3.141592653589793,266.7,3471.0,8.152198015861787,2022-06-15 13:54:17
432,Main,4,1,47,Graphic designer,True,n_BC,n_AD,True,True,False,Sure different,1,3.141592653589793,266.7,3556.0,8.176391596633795,2022-06-15 13:54:17
433,Main,4,1,48,Graphic designer,True,n_AA,n_AA,False,True,True,Sure same,1,3.141592653589793,266.7,3295.0,8.100161446936607,2022-06-15 13:54:17
434,Main,4,1,49,Graphic designer,True,p_AA,p_AA,False,True,True,Probably same,1,3.141592653589793,266.7,3216.0,8.075893630298857,2022-06-15 13:54:17
435,Main,4,1,50,Graphic designer,True,t_AA,t_DD,False,True,False,Probably different,1,3.141592653589793,266.7,3184.0,8.065893546964274,2022-06-15 13:54:17
436,Main,4,1,51,Graphic designer,True,q_AA,q_AA,False,True,True,Probably same,1,3.141592653589793,266.7,3184.0,8.065893546964274,2022-06-15 13:54:17
437,Main,4,1,52,Graphic designer,True,c_AD,c_AD,True,True,True,Sure same,1,3.141592653589793,266.7,3038.0,8.018954683155718,2022-06-15 13:54:17
438,Main,4,1,53,Graphic designer,True,z_AA,z_DD,False,True,False,Sure different,1,3.141592653589793,266.7,2891.0,7.969357742016346,2022-06-15 13:54:17
439,Main,4,1,54,Graphic designer,True,t_AD,t_AD,True,True,True,Sure same,1,3.141592653589793,266.7,2813.0,7.9420068084898565,2022-06-15 13:54:17
440,Main,4,1,55,Graphic designer,True,h_AD,h_AD,True,True,True,Sure same,1,3.141592653589793,266.7,2657.0,7.884952945759814,2022-06-15 13:54:17
441,Main,4,1,56,Graphic designer,True,h_DD,h_AA,False,True,False,Sure different,1,3.141592653589793,266.7,2868.0,7.961370201719511,2022-06-15 13:54:17
442,Main,4,1,57,Graphic designer,True,e_AB,e_AD,True,False,True,Sure same,1,3.141592653589793,266.7,3321.0,8.108021221376747,2022-06-15 13:54:17
443,Main,4,1,58,Graphic designer,True,p_BC,p_AD,True,True,False,Sure different,1,3.141592653589793,266.7,2749.0,7.918992488165245,2022-06-15 13:54:17
444,Main,4,1,59,Graphic designer,True,j_AD,j_BD,True,False,False,Sure different,1,3.141592653589793,266.7,2768.0,7.92588031673756,2022-06-15 13:54:17
445,Main,4,1,60,Graphic designer,True,t_AA,t_AA,False,True,True,Sure same,1,3.141592653589793,266.7,2862.0,7.959275960116396,2022-06-15 13:54:17
446,Main,4,1,61,Graphic designer,True,a_AD,a_BC,True,True,False,Probably same,0,0.0,266.7,2848.0,7.954372272531867,2022-06-15 13:54:17
447,Main,4,1,62,Graphic designer,True,a_BD,a_AD,True,False,False,Probably same,0,0.0,266.7,2743.0,7.916807490937603,2022-06-15 13:54:17
448,Main,4,1,63,Graphic designer,True,a_DD,a_AA,False,True,False,Sure different,1,3.141592653589793,266.7,2779.0,7.929846429742503,2022-06-15 13:54:17
449,Main,4,1,64,Graphic designer,True,b_AA,b_AA,False,True,True,Probably same,1,3.141592653589793,266.7,3380.0,8.125630988477065,2022-06-15 13:54:17
450,Main,4,1,65,Graphic designer,True,n_AB,n_AD,True,False,True,Sure same,1,3.141592653589793,266.7,2687.0,7.8961806086154915,2022-06-15 13:54:17
451,Main,4,1,66,Graphic designer,True,b_DD,b_AA,False,True,False,Sure different,1,3.141592653589793,266.7,2827.0,7.946971357693591,2022-06-15 13:54:17
452,Main,4,1,67,Graphic designer,True,h_AD,h_AB,True,False,True,Sure same,1,3.141592653589793,266.7,2885.0,7.9672801789422,2022-06-15 13:54:17
453,Main,4,1,68,Graphic designer,True,t_AD,t_BC,True,True,False,Sure same,0,0.0,266.7,2444.0,7.8013913202914855,2022-06-15 13:54:17
454,Main,4,1,69,Graphic designer,True,q_BD,q_AD,True,False,False,Probably same,0,0.0,266.7,3074.0,8.03073492409854,2022-06-15 13:54:17
455,Main,4,1,70,Graphic designer,True,n_DD,n_AA,False,True,False,Sure different,1,3.141592653589793,266.7,3011.0,8.010027528481734,2022-06-15 13:54:17
456,Main,4,1,71,Graphic designer,True,c_AA,c_DD,False,True,False,Sure different,1,3.141592653589793,266.7,2617.0,7.869783902530146,2022-06-15 13:54:17
457,Main,4,1,72,Graphic designer,True,p_AD,p_AD,True,True,True,Sure same,1,3.141592653589793,266.7,3177.0,8.063692634269517,2022-06-15 13:54:17
458,Main,4,0,19,Graphic designer,True,u_AD,u_BD,True,False,False,Sure different,1,3.141592653589793,725.0,3582.0,8.183676582620658,2022-06-15 13:54:17
459,Main,4,0,20,Graphic designer,True,i_AD,i_AD,True,True,True,Sure same,1,3.141592653589793,800.0,3535.0,8.170468578330674,2022-06-15 13:54:17
460,Main,5,0,1,Graphic designer,True,d_BC,d_AD,True,True,False,Sure same,0,0.0,800.0,10059.0,9.216223035134337,2022-06-15 13:41:58
461,Main,5,0,2,Graphic designer,True,u_DD,u_AA,False,True,False,Sure different,1,3.141592653589793,800.0,3993.0,8.292298107063221,2022-06-15 13:41:58
462,Main,5,0,3,Graphic designer,True,d_DD,d_AA,False,True,False,Sure different,1,3.141592653589793,800.0,5218.0,8.559869465696673,2022-06-15 13:41:58
463,Main,5,0,4,Graphic designer,True,d_AA,d_AA,False,True,True,Sure same,1,3.141592653589793,725.0,5582.0,8.627302414096267,2022-06-15 13:41:58
464,Main,5,0,5,Graphic designer,True,i_AA,i_DD,False,True,False,Sure different,1,3.141592653589793,650.0,3222.0,8.07775756373692,2022-06-15 13:41:58
465,Main,5,0,6,Graphic designer,True,d_BC,d_AD,True,True,False,Probably different,1,3.141592653589793,575.0,3835.0,8.251924713801357,2022-06-15 13:41:58
466,Main,5,0,7,Graphic designer,True,i_AD,i_BD,True,False,False,Probably different,1,3.141592653589793,500.0,3328.0,8.1101268019411,2022-06-15 13:41:58
467,Main,5,0,8,Graphic designer,True,d_AD,d_BD,True,False,False,Sure different,1,3.141592653589793,425.0,3642.0,8.200288260287554,2022-06-15 13:41:58
468,Main,5,0,9,Graphic designer,True,u_AD,u_AB,True,False,True,Sure different,0,0.0,350.0,3676.0,8.209580483475577,2022-06-15 13:41:58
469,Main,5,0,10,Graphic designer,True,d_AB,d_AD,True,False,True,Probably different,0,0.0,275.0,9861.0,9.19634286233233,2022-06-15 13:41:58
470,Main,5,0,11,Graphic designer,True,u_AD,u_BC,True,True,False,Probably different,1,3.141592653589793,200.0,5228.0,8.561784074744113,2022-06-15 13:41:58
471,Main,5,0,12,Graphic designer,True,u_AA,u_AA,False,True,True,Sure same,1,3.141592653589793,200.0,2940.0,7.986164860332727,2022-06-15 13:41:58
472,Main,5,0,13,Graphic designer,True,i_BC,i_AD,True,True,False,Sure different,1,3.141592653589793,275.0,2968.0,7.995643604287271,2022-06-15 13:41:58
473,Main,5,0,14,Graphic designer,True,i_AD,i_AB,True,False,True,Sure different,0,0.0,350.0,2893.0,7.970049304976135,2022-06-15 13:41:58
474,Main,5,0,15,Graphic designer,True,u_AD,u_AD,True,True,True,Sure same,1,3.141592653589793,425.0,3282.0,8.096208271650037,2022-06-15 13:41:58
475,Main,5,0,16,Graphic designer,True,u_AA,u_DD,False,True,False,Sure different,1,3.141592653589793,500.0,2921.0,7.979681302387741,2022-06-15 13:41:58
476,Main,5,0,17,Graphic designer,True,d_AD,d_AD,True,True,True,Sure same,1,3.141592653589793,575.0,3394.0,8.129764445794171,2022-06-15 13:41:58
477,Main,5,0,18,Graphic designer,True,i_AA,i_AA,False,True,True,Probably same,1,3.141592653589793,650.0,3417.0,8.136518252115291,2022-06-15 13:41:58
478,Main,5,1,1,Graphic designer,True,p_AA,p_DD,False,True,False,Sure different,1,3.141592653589793,266.7,4981.0,8.513385953073284,2022-06-15 13:41:58
479,Main,5,1,2,Graphic designer,True,q_AD,q_AB,True,False,True,Probably different,0,0.0,266.7,3829.0,8.250358951477294,2022-06-15 13:41:58
480,Main,5,1,3,Graphic designer,True,q_DD,q_AA,False,True,False,Sure different,1,3.141592653589793,266.7,2594.0,7.860956364876389,2022-06-15 13:41:58
481,Main,5,1,4,Graphic designer,True,c_BD,c_AD,True,False,False,Sure same,0,0.0,266.7,2683.0,7.894690850425624,2022-06-15 13:41:58
482,Main,5,1,5,Graphic designer,True,j_AD,j_AD,True,True,True,Sure same,1,3.141592653589793,266.7,2517.0,7.830822995135316,2022-06-15 13:41:58
483,Main,5,1,6,Graphic designer,True,n_AD,n_AB,True,False,True,Probably different,0,0.0,266.7,3723.0,8.222285073872717,2022-06-15 13:41:58
484,Main,5,1,7,Graphic designer,True,z_AA,z_AA,False,True,True,Probably same,1,3.141592653589793,266.7,3981.0,8.289288323000317,2022-06-15 13:41:58
485,Main,5,1,8,Graphic designer,True,a_BD,a_AD,True,False,False,Sure same,0,0.0,266.7,2509.0,7.827639546366422,2022-06-15 13:41:58
486,Main,5,1,9,Graphic designer,True,e_AA,e_AA,False,True,True,Sure same,1,3.141592653589793,266.7,2421.0,7.791935956938058,2022-06-15 13:41:58
487,Main,5,1,10,Graphic designer,True,a_AD,a_AD,True,True,True,Sure same,1,3.141592653589793,266.7,2503.0,7.8252452914317745,2022-06-15 13:41:58
488,Main,5,1,11,Graphic designer,True,b_AD,b_AB,True,False,True,Probably different,0,0.0,266.7,3579.0,8.182838710766026,2022-06-15 13:41:58
489,Main,5,1,12,Graphic designer,True,p_AB,p_AD,True,False,True,Probably different,0,0.0,266.7,2960.0,7.992944547318106,2022-06-15 13:41:58
490,Main,5,1,13,Graphic designer,True,j_BC,j_AD,True,True,False,Sure different,1,3.141592653589793,266.7,2944.0,7.987524479848767,2022-06-15 13:41:58
491,Main,5,1,14,Graphic designer,True,q_AD,q_AD,True,True,True,Probably same,1,3.141592653589793,266.7,3149.0,8.054840221101024,2022-06-15 13:41:58
492,Main,5,1,15,Graphic designer,True,z_AD,z_AD,True,True,True,Sure same,1,3.141592653589793,266.7,3091.0,8.036249942132116,2022-06-15 13:41:58
493,Main,5,1,16,Graphic designer,True,r_AA,r_AA,False,True,True,Sure same,1,3.141592653589793,266.7,3246.0,8.085178748074537,2022-06-15 13:41:58
494,Main,5,1,17,Graphic designer,True,p_AD,p_AD,True,True,True,Sure same,1,3.141592653589793,266.7,2816.0,7.943072717277933,2022-06-15 13:41:58
495,Main,5,1,18,Graphic designer,True,h_AA,h_DD,False,True,False,Sure different,1,3.141592653589793,266.7,2887.0,7.967973179662935,2022-06-15 13:41:58
496,Main,5,1,19,Graphic designer,True,e_AB,e_AD,True,False,True,Sure same,1,3.141592653589793,266.7,3685.0,8.212025804623437,2022-06-15 13:41:58
497,Main,5,1,20,Graphic designer,True,b_AD,b_BD,True,False,False,Probably same,0,0.0,266.7,3100.0,8.039157390473237,2022-06-15 13:41:58
498,Main,5,1,21,Graphic designer,True,z_AB,z_AD,True,False,True,Sure same,1,3.141592653589793,266.7,3809.0,8.245121966478605,2022-06-15 13:41:58
499,Main,5,1,22,Graphic designer,True,h_BC,h_AD,True,True,False,Sure different,1,3.141592653589793,266.7,2609.0,7.866722285136729,2022-06-15 13:41:58
500,Main,5,1,23,Graphic designer,True,e_AD,e_AD,True,True,True,Sure same,1,3.141592653589793,266.7,2555.0,7.845807502637805,2022-06-15 13:41:58
501,Main,5,1,24,Graphic designer,True,a_AA,a_DD,False,True,False,Sure different,1,3.141592653589793,266.7,2572.0,7.85243908535751,2022-06-15 13:41:58
502,Main,5,1,25,Graphic designer,True,h_AD,h_BD,True,False,False,Sure different,1,3.141592653589793,266.7,2376.0,7.773173680482536,2022-06-15 13:41:58
503,Main,5,1,26,Graphic designer,True,r_AD,r_BD,True,False,False,Sure different,1,3.141592653589793,266.7,2496.0,7.822444729489319,2022-06-15 13:41:58
504,Main,5,1,27,Graphic designer,True,p_AD,p_BC,True,True,False,Sure different,1,3.141592653589793,266.7,2590.0,7.859413154693583,2022-06-15 13:41:58
505,Main,5,1,28,Graphic designer,True,c_AB,c_AD,True,False,True,Sure same,1,3.141592653589793,266.7,2442.0,7.80057265467065,2022-06-15 13:41:58
506,Main,5,1,29,Graphic designer,True,a_AA,a_AA,False,True,True,Probably same,1,3.141592653589793,266.7,3355.0,8.118207049405783,2022-06-15 13:41:58
507,Main,5,1,30,Graphic designer,True,e_AD,e_BC,True,True,False,Sure same,0,0.0,266.7,4065.0,8.310169021981912,2022-06-15 13:41:58
508,Main,5,1,31,Graphic designer,True,t_BC,t_AD,True,True,False,Sure different,1,3.141592653589793,266.7,2954.0,7.9909154630913255,2022-06-15 13:41:58
509,Main,5,1,32,Graphic designer,True,z_DD,z_AA,False,True,False,Sure different,1,3.141592653589793,266.7,2382.0,7.775695749915245,2022-06-15 13:41:58
510,Main,5,1,33,Graphic designer,True,h_AA,h_AA,False,True,True,Probably same,1,3.141592653589793,266.7,3201.0,8.071218539969863,2022-06-15 13:41:58
511,Main,5,1,34,Graphic designer,True,n_AD,n_AD,True,True,True,Sure same,1,3.141592653589793,266.7,2858.0,7.957877358489813,2022-06-15 13:41:58
512,Main,5,1,35,Graphic designer,True,n_BC,n_AD,True,True,False,Sure same,0,0.0,266.7,3351.0,8.11701408773731,2022-06-15 13:41:58
513,Main,5,1,36,Graphic designer,True,n_AA,n_AA,False,True,True,Sure same,1,3.141592653589793,266.7,3207.0,8.073091199693154,2022-06-15 13:41:58
514,Main,5,1,37,Graphic designer,True,b_AA,b_AA,False,True,True,Probably same,1,3.141592653589793,266.7,3280.0,8.09559870137819,2022-06-15 13:41:58
515,Main,5,1,38,Graphic designer,True,j_AB,j_AD,True,False,True,Sure different,0,0.0,266.7,2872.0,7.962763930168115,2022-06-15 13:41:58
516,Main,5,1,39,Graphic designer,True,a_AD,a_AB,True,False,True,Sure same,1,3.141592653589793,266.7,2965.0,7.994632311431825,2022-06-15 13:41:58
517,Main,5,1,40,Graphic designer,True,t_BD,t_AD,True,False,False,Sure different,1,3.141592653589793,266.7,3826.0,8.249575150000199,2022-06-15 13:41:58
518,Main,5,1,41,Graphic designer,True,t_AA,t_AA,False,True,True,Sure same,1,3.141592653589793,266.7,2535.0,7.837948916025283,2022-06-15 13:41:58
519,Main,5,1,42,Graphic designer,True,q_BD,q_AD,True,False,False,Sure same,0,0.0,266.7,2783.0,7.931284761525891,2022-06-15 13:41:58
520,Main,5,1,43,Graphic designer,True,t_AD,t_AD,True,True,True,Sure same,1,3.141592653589793,266.7,2702.0,7.9017475185201445,2022-06-15 13:41:58
521,Main,5,1,44,Graphic designer,True,p_AD,p_BD,True,False,False,Sure different,1,3.141592653589793,266.7,3151.0,8.055475141757274,2022-06-15 13:41:58
522,Main,5,1,45,Graphic designer,True,b_AD,b_AD,True,True,True,Sure same,1,3.141592653589793,266.7,2903.0,7.97349996402463,2022-06-15 13:41:58
523,Main,5,1,46,Graphic designer,True,b_BC,b_AD,True,True,False,Sure different,1,3.141592653589793,266.7,2446.0,7.802209316247118,2022-06-15 13:41:58
524,Main,5,1,47,Graphic designer,True,r_AD,r_AD,True,True,True,Probably same,1,3.141592653589793,266.7,3020.0,8.013012110368916,2022-06-15 13:41:58
525,Main,5,1,48,Graphic designer,True,t_AD,t_AB,True,False,True,Probably same,1,3.141592653589793,266.7,3235.0,8.081784206935001,2022-06-15 13:41:58
526,Main,5,1,49,Graphic designer,True,p_AA,p_AA,False,True,True,Sure same,1,3.141592653589793,266.7,2624.0,7.8724551500639794,2022-06-15 13:41:58
527,Main,5,1,50,Graphic designer,True,h_AD,h_AB,True,False,True,Sure same,1,3.141592653589793,266.7,3423.0,8.138272638530186,2022-06-15 13:41:58
528,Main,5,1,51,Graphic designer,True,r_BC,r_AD,True,True,False,Sure different,1,3.141592653589793,266.7,2921.0,7.979681302387741,2022-06-15 13:41:58
529,Main,5,1,52,Graphic designer,True,z_AD,z_BD,True,False,False,Sure different,1,3.141592653589793,266.7,2285.0,7.734121303328305,2022-06-15 13:41:58
530,Main,5,1,53,Graphic designer,True,n_AD,n_BD,True,False,False,Sure different,1,3.141592653589793,266.7,3136.0,8.0507033814703,2022-06-15 13:41:58
531,Main,5,1,54,Graphic designer,True,a_BC,a_AD,True,True,False,Sure same,0,0.0,266.7,2946.0,7.988203597022576,2022-06-15 13:41:58
532,Main,5,1,55,Graphic designer,True,c_AA,c_DD,False,True,False,Sure different,1,3.141592653589793,266.7,2494.0,7.821643126239982,2022-06-15 13:41:58
533,Main,5,1,56,Graphic designer,True,e_AA,e_DD,False,True,False,Sure different,1,3.141592653589793,266.7,2733.0,7.913155185928068,2022-06-15 13:41:58
534,Main,5,1,57,Graphic designer,True,c_AD,c_AD,True,True,True,Sure same,1,3.141592653589793,266.7,4116.0,8.32263709695394,2022-06-15 13:41:58
535,Main,5,1,58,Graphic designer,True,j_AA,j_DD,False,True,False,Sure different,1,3.141592653589793,266.7,2493.0,7.821242083523558,2022-06-15 13:41:58
536,Main,5,1,59,Graphic designer,True,e_AD,e_BD,True,False,False,Sure same,0,0.0,266.7,2757.0,7.921898411023797,2022-06-15 13:41:58
537,Main,5,1,60,Graphic designer,True,c_AA,c_AA,False,True,True,Sure same,1,3.141592653589793,266.7,3152.0,8.05579245097777,2022-06-15 13:41:58
538,Main,5,1,61,Graphic designer,True,r_DD,r_AA,False,True,False,Sure different,1,3.141592653589793,266.7,2328.0,7.752764808851328,2022-06-15 13:41:58
539,Main,5,1,62,Graphic designer,True,q_AA,q_AA,False,True,True,Sure different,0,0.0,266.7,2573.0,7.8528278122817445,2022-06-15 13:41:58
540,Main,5,1,63,Graphic designer,True,q_AD,q_BC,True,True,False,Sure different,1,3.141592653589793,266.7,2443.0,7.8009820712577405,2022-06-15 13:41:58
541,Main,5,1,64,Graphic designer,True,t_DD,t_AA,False,True,False,Sure different,1,3.141592653589793,266.7,2219.0,7.704811922932594,2022-06-15 13:41:58
542,Main,5,1,65,Graphic designer,True,r_AD,r_AB,True,False,True,Sure same,1,3.141592653589793,266.7,2675.0,7.891704659330107,2022-06-15 13:41:58
543,Main,5,1,66,Graphic designer,True,h_AD,h_AD,True,True,True,Sure same,1,3.141592653589793,266.7,2462.0,7.808729306744399,2022-06-15 13:41:58
544,Main,5,1,67,Graphic designer,True,b_AA,b_DD,False,True,False,Sure different,1,3.141592653589793,266.7,2423.0,7.792761720816526,2022-06-15 13:41:58
545,Main,5,1,68,Graphic designer,True,c_BC,c_AD,True,True,False,Sure same,0,0.0,266.7,2551.0,7.844240718141811,2022-06-15 13:41:58
546,Main,5,1,69,Graphic designer,True,j_AA,j_AA,False,True,True,Probably different,0,0.0,266.7,3480.0,8.15478757276852,2022-06-15 13:41:58
547,Main,5,1,70,Graphic designer,True,z_AD,z_BC,True,True,False,Sure different,1,3.141592653589793,266.7,2663.0,7.887208585813932,2022-06-15 13:41:58
548,Main,5,1,71,Graphic designer,True,j_AD,j_BD,True,False,False,Sure different,1,3.141592653589793,266.7,2478.0,7.815207062189088,2022-06-15 13:41:58
549,Main,5,1,72,Graphic designer,True,n_AA,n_DD,False,True,False,Sure different,1,3.141592653589793,266.7,2578.0,7.8547691834991324,2022-06-15 13:41:58
550,Main,5,0,19,Graphic designer,True,u_AD,u_BD,True,False,False,Sure different,1,3.141592653589793,725.0,3411.0,8.134760782418645,2022-06-15 13:41:58
551,Main,5,0,20,Graphic designer,True,i_AD,i_AD,True,True,True,Sure same,1,3.141592653589793,800.0,3810.0,8.245384468120747,2022-06-15 13:41:58
552,Main,6,0,1,Letter designer,True,d_AD,d_BC,True,True,False,Probably same,0,0.0,800.0,11914.0,9.385469458188632,2022-06-15 13:41:27
553,Main,6,0,2,Letter designer,True,u_AA,u_DD,False,True,False,Sure different,1,3.141592653589793,800.0,5204.0,8.557182839632397,2022-06-15 13:41:27
554,Main,6,0,3,Letter designer,True,d_AA,d_DD,False,True,False,Sure different,1,3.141592653589793,800.0,6410.0,8.765614549914716,2022-06-15 13:41:27
555,Main,6,0,4,Letter designer,True,d_AA,d_AA,False,True,True,Sure same,1,3.141592653589793,725.0,4575.0,8.428361977709622,2022-06-15 13:41:27
556,Main,6,0,5,Letter designer,True,i_AA,i_DD,False,True,False,Sure different,1,3.141592653589793,650.0,5181.0,8.552753366814787,2022-06-15 13:41:27
557,Main,6,0,6,Letter designer,True,d_AD,d_BC,True,True,False,Sure different,1,3.141592653589793,575.0,8684.0,9.069237530998182,2022-06-15 13:41:27
558,Main,6,0,7,Letter designer,True,i_AD,i_BD,True,False,False,Sure different,1,3.141592653589793,500.0,3634.0,8.198089248956116,2022-06-15 13:41:27
559,Main,6,0,8,Letter designer,True,d_AD,d_BD,True,False,False,Sure different,1,3.141592653589793,425.0,3226.0,8.078998258685154,2022-06-15 13:41:27
560,Main,6,0,9,Letter designer,True,u_AB,u_AD,True,False,True,Sure different,0,0.0,350.0,3288.0,8.098034756176071,2022-06-15 13:41:27
561,Main,6,0,10,Letter designer,True,d_AD,d_AB,True,False,True,Probably different,0,0.0,275.0,5173.0,8.551208070003515,2022-06-15 13:41:27
562,Main,6,0,11,Letter designer,True,u_BC,u_AD,True,True,False,Probably different,1,3.141592653589793,200.0,3280.0,8.09559870137819,2022-06-15 13:41:27
563,Main,6,0,12,Letter designer,True,u_AA,u_AA,False,True,True,Probably same,1,3.141592653589793,200.0,6368.0,8.75904072752422,2022-06-15 13:41:27
564,Main,6,0,13,Letter designer,True,i_BC,i_AD,True,True,False,Sure different,1,3.141592653589793,275.0,5020.0,8.521185212685776,2022-06-15 13:41:27
565,Main,6,0,14,Letter designer,True,i_AB,i_AD,True,False,True,Probably same,1,3.141592653589793,350.0,14269.0,9.565844630930576,2022-06-15 13:41:27
566,Main,6,0,15,Letter designer,True,u_AD,u_AD,True,True,True,Sure same,1,3.141592653589793,425.0,3698.0,8.21554741194707,2022-06-15 13:41:27
567,Main,6,0,16,Letter designer,True,u_AA,u_DD,False,True,False,Sure different,1,3.141592653589793,500.0,3886.0,8.265135629937385,2022-06-15 13:41:27
568,Main,6,0,17,Letter designer,True,d_AD,d_AD,True,True,True,Sure different,0,0.0,575.0,3470.0,8.151909872940905,2022-06-15 13:41:27
569,Main,6,0,18,Letter designer,True,i_AA,i_AA,False,True,True,Sure same,1,3.141592653589793,650.0,4188.0,8.339978571990427,2022-06-15 13:41:27
570,Main,6,1,1,Letter designer,True,a_AB,a_AD,True,False,True,Sure same,1,3.141592653589793,266.7,5913.0,8.68490859582083,2022-06-15 13:41:27
571,Main,6,1,2,Letter designer,True,z_AA,z_DD,False,True,False,Sure different,1,3.141592653589793,266.7,3663.0,8.206037762778815,2022-06-15 13:41:27
572,Main,6,1,3,Letter designer,True,h_BC,h_AD,True,True,False,Sure different,1,3.141592653589793,266.7,5217.0,8.559677803022392,2022-06-15 13:41:27
573,Main,6,1,4,Letter designer,True,z_AD,z_AD,True,True,True,Sure same,1,3.141592653589793,266.7,3441.0,8.14351740579748,2022-06-15 13:41:27
574,Main,6,1,5,Letter designer,True,r_AD,r_AD,True,True,True,Sure same,1,3.141592653589793,266.7,2888.0,7.968319500012717,2022-06-15 13:41:27
575,Main,6,1,6,Letter designer,True,z_AA,z_AA,False,True,True,Sure same,1,3.141592653589793,266.7,2669.0,7.889459149404524,2022-06-15 13:41:27
576,Main,6,1,7,Letter designer,True,c_AD,c_AD,True,True,True,Sure same,1,3.141592653589793,266.7,3040.0,8.019612794400267,2022-06-15 13:41:27
577,Main,6,1,8,Letter designer,True,n_DD,n_AA,False,True,False,Sure different,1,3.141592653589793,266.7,3153.0,8.056109659545061,2022-06-15 13:41:27
578,Main,6,1,9,Letter designer,True,c_AB,c_AD,True,False,True,Sure same,1,3.141592653589793,266.7,4286.0,8.363109176033522,2022-06-15 13:41:27
579,Main,6,1,10,Letter designer,True,b_AD,b_AD,True,True,True,Sure same,1,3.141592653589793,266.7,2430.0,7.795646536334594,2022-06-15 13:41:27
580,Main,6,1,11,Letter designer,True,j_AD,j_AB,True,False,True,Sure same,1,3.141592653589793,266.7,2751.0,7.919719760924575,2022-06-15 13:41:27
581,Main,6,1,12,Letter designer,True,p_AD,p_AD,True,True,True,Sure same,1,3.141592653589793,266.7,2778.0,7.9294865233142895,2022-06-15 13:41:27
582,Main,6,1,13,Letter designer,True,e_BC,e_AD,True,True,False,Sure same,0,0.0,266.7,2731.0,7.912423121473705,2022-06-15 13:41:27
583,Main,6,1,14,Letter designer,True,j_BC,j_AD,True,True,False,Sure different,1,3.141592653589793,266.7,3347.0,8.115819701211327,2022-06-15 13:41:27
584,Main,6,1,15,Letter designer,True,q_AB,q_AD,True,False,True,Sure same,1,3.141592653589793,266.7,3348.0,8.116118431609365,2022-06-15 13:41:27
585,Main,6,1,16,Letter designer,True,p_AD,p_BD,True,False,False,Sure different,1,3.141592653589793,266.7,3550.0,8.174702882469461,2022-06-15 13:41:27
586,Main,6,1,17,Letter designer,True,c_AD,c_BD,True,False,False,Sure same,0,0.0,266.7,3075.0,8.031060180240619,2022-06-15 13:41:27
587,Main,6,1,18,Letter designer,True,b_AD,b_AB,True,False,True,Sure same,1,3.141592653589793,266.7,7750.0,8.955448122347393,2022-06-15 13:41:27
588,Main,6,1,19,Letter designer,True,n_AD,n_AD,True,True,True,Probably different,0,0.0,266.7,9379.0,9.146228426508939,2022-06-15 13:41:27
589,Main,6,1,20,Letter designer,True,j_AA,j_DD,False,True,False,Sure different,1,3.141592653589793,266.7,5910.0,8.684401110400144,2022-06-15 13:41:27
590,Main,6,1,21,Letter designer,True,t_BC,t_AD,True,True,False,Sure same,0,0.0,266.7,3395.0,8.130059039992796,2022-06-15 13:41:27
591,Main,6,1,22,Letter designer,True,h_AD,h_AB,True,False,True,Sure same,1,3.141592653589793,266.7,3433.0,8.141189793457691,2022-06-15 13:41:27
592,Main,6,1,23,Letter designer,True,n_BD,n_AD,True,False,False,Probably different,1,3.141592653589793,266.7,4197.0,8.34212526333359,2022-06-15 13:41:27
593,Main,6,1,24,Letter designer,True,a_AD,a_AD,True,True,True,Sure same,1,3.141592653589793,266.7,3298.0,8.101071503119543,2022-06-15 13:41:27
594,Main,6,1,25,Letter designer,True,t_AD,t_BD,True,False,False,Sure same,0,0.0,266.7,2698.0,7.900266036767701,2022-06-15 13:41:27
595,Main,6,1,26,Letter designer,True,q_BC,q_AD,True,True,False,Sure same,0,0.0,266.7,3980.0,8.289037098278483,2022-06-15 13:41:27
596,Main,6,1,27,Letter designer,True,q_AD,q_AD,True,True,True,Sure same,1,3.141592653589793,266.7,2477.0,7.814803429489359,2022-06-15 13:41:27
597,Main,6,1,28,Letter designer,True,a_AD,a_BC,True,True,False,Sure same,0,0.0,266.7,3015.0,8.011355109161286,2022-06-15 13:41:27
598,Main,6,1,29,Letter designer,True,a_AA,a_AA,False,True,True,Sure same,1,3.141592653589793,266.7,2732.0,7.912789220690681,2022-06-15 13:41:27
599,Main,6,1,30,Letter designer,True,j_AA,j_AA,False,True,True,Sure same,1,3.141592653589793,266.7,3154.0,8.056426767522984,2022-06-15 13:41:27
600,Main,6,1,31,Letter designer,True,r_AD,r_AB,True,False,True,Sure same,1,3.141592653589793,266.7,2448.0,7.803026643632217,2022-06-15 13:41:27
601,Main,6,1,32,Letter designer,True,p_AB,p_AD,True,False,True,Sure same,1,3.141592653589793,266.7,2639.0,7.878155336503324,2022-06-15 13:41:27
602,Main,6,1,33,Letter designer,True,q_AA,q_DD,False,True,False,Sure different,1,3.141592653589793,266.7,4698.0,8.454892165218858,2022-06-15 13:41:27
603,Main,6,1,34,Letter designer,True,p_AA,p_AA,False,True,True,Sure same,1,3.141592653589793,266.7,4663.0,8.44741429680832,2022-06-15 13:41:27
604,Main,6,1,35,Letter designer,True,r_DD,r_AA,False,True,False,Sure different,1,3.141592653589793,266.7,3653.0,8.203304026795282,2022-06-15 13:41:27
605,Main,6,1,36,Letter designer,True,e_AD,e_AD,True,True,True,Sure same,1,3.141592653589793,266.7,3531.0,8.169336395928386,2022-06-15 13:41:27
606,Main,6,1,37,Letter designer,True,j_BD,j_AD,True,False,False,Sure different,1,3.141592653589793,266.7,3827.0,8.249836485425702,2022-06-15 13:41:27
607,Main,6,1,38,Letter designer,True,t_AD,t_AD,True,True,True,Sure same,1,3.141592653589793,266.7,3638.0,8.199189359078067,2022-06-15 13:41:27
608,Main,6,1,39,Letter designer,True,c_BC,c_AD,True,True,False,Sure same,0,0.0,266.7,2625.0,7.872836175025724,2022-06-15 13:41:27
609,Main,6,1,40,Letter designer,True,c_AA,c_AA,False,True,True,Sure same,1,3.141592653589793,266.7,2423.0,7.792761720816526,2022-06-15 13:41:27
610,Main,6,1,41,Letter designer,True,a_DD,a_AA,False,True,False,Sure different,1,3.141592653589793,266.7,3199.0,8.070593539949519,2022-06-15 13:41:27
611,Main,6,1,42,Letter designer,True,e_BD,e_AD,True,False,False,Sure same,0,0.0,266.7,3578.0,8.182559264068665,2022-06-15 13:41:27
612,Main,6,1,43,Letter designer,True,r_BD,r_AD,True,False,False,Sure same,0,0.0,266.7,3091.0,8.036249942132116,2022-06-15 13:41:27
613,Main,6,1,44,Letter designer,True,t_DD,t_AA,False,True,False,Sure different,1,3.141592653589793,266.7,3551.0,8.174984532943087,2022-06-15 13:41:27
614,Main,6,1,45,Letter designer,True,q_AD,q_BD,True,False,False,Sure same,0,0.0,266.7,3341.0,8.114025442356757,2022-06-15 13:41:27
615,Main,6,1,46,Letter designer,True,a_BD,a_AD,True,False,False,Sure different,1,3.141592653589793,266.7,3407.0,8.133587417660966,2022-06-15 13:41:27
616,Main,6,1,47,Letter designer,True,z_BC,z_AD,True,True,False,Sure different,1,3.141592653589793,266.7,3245.0,8.08487062913819,2022-06-15 13:41:27
617,Main,6,1,48,Letter designer,True,t_AA,t_AA,False,True,True,Sure same,1,3.141592653589793,266.7,3597.0,8.187855443695623,2022-06-15 13:41:27
618,Main,6,1,49,Letter designer,True,c_AA,c_DD,False,True,False,Sure different,1,3.141592653589793,266.7,3260.0,8.089482474360754,2022-06-15 13:41:27
619,Main,6,1,50,Letter designer,True,h_AA,h_DD,False,True,False,Sure different,1,3.141592653589793,266.7,3331.0,8.11102783819368,2022-06-15 13:41:27
620,Main,6,1,51,Letter designer,True,r_AD,r_BC,True,True,False,Probably different,1,3.141592653589793,266.7,5141.0,8.545002892055505,2022-06-15 13:41:27
621,Main,6,1,52,Letter designer,True,h_BD,h_AD,True,False,False,Sure different,1,3.141592653589793,266.7,3602.0,8.189244525735901,2022-06-15 13:41:27
622,Main,6,1,53,Letter designer,True,p_AA,p_DD,False,True,False,Sure different,1,3.141592653589793,266.7,3303.0,8.10258642539079,2022-06-15 13:41:27
623,Main,6,1,54,Letter designer,True,n_AD,n_AB,True,False,True,Probably same,1,3.141592653589793,266.7,4032.0,8.302017809751204,2022-06-15 13:41:27
624,Main,6,1,55,Letter designer,True,n_BC,n_AD,True,True,False,Probably same,0,0.0,266.7,3093.0,8.03689677268507,2022-06-15 13:41:27
625,Main,6,1,56,Letter designer,True,j_AD,j_AD,True,True,True,Sure same,1,3.141592653589793,266.7,2882.0,7.966239776559467,2022-06-15 13:41:27
626,Main,6,1,57,Letter designer,True,z_AD,z_BD,True,False,False,Sure different,1,3.141592653589793,266.7,3507.0,8.162516250140179,2022-06-15 13:41:27
627,Main,6,1,58,Letter designer,True,h_AA,h_AA,False,True,True,Sure same,1,3.141592653589793,266.7,3493.0,8.158516244806831,2022-06-15 13:41:27
628,Main,6,1,59,Letter designer,True,b_AD,b_BC,True,True,False,Sure different,1,3.141592653589793,266.7,3267.0,8.09162741160107,2022-06-15 13:41:27
629,Main,6,1,60,Letter designer,True,b_BD,b_AD,True,False,False,Sure different,1,3.141592653589793,266.7,3411.0,8.134760782418645,2022-06-15 13:41:27
630,Main,6,1,61,Letter designer,True,e_DD,e_AA,False,True,False,Sure different,1,3.141592653589793,266.7,4662.0,8.447199819595703,2022-06-15 13:41:27
631,Main,6,1,62,Letter designer,True,p_BC,p_AD,True,True,False,Probably different,1,3.141592653589793,266.7,5397.0,8.593598522618644,2022-06-15 13:41:27
632,Main,6,1,63,Letter designer,True,e_AD,e_AB,True,False,True,Sure same,1,3.141592653589793,266.7,3830.0,8.250620082174692,2022-06-15 13:41:27
633,Main,6,1,64,Letter designer,True,q_AA,q_AA,False,True,True,Sure same,1,3.141592653589793,266.7,3029.0,8.015987811027237,2022-06-15 13:41:27
634,Main,6,1,65,Letter designer,True,r_AA,r_AA,False,True,True,Sure same,1,3.141592653589793,266.7,2639.0,7.878155336503324,2022-06-15 13:41:27
635,Main,6,1,66,Letter designer,True,b_AA,b_DD,False,True,False,Sure different,1,3.141592653589793,266.7,3192.0,8.068402958569699,2022-06-15 13:41:27
636,Main,6,1,67,Letter designer,True,b_AA,b_AA,False,True,True,Sure same,1,3.141592653589793,266.7,3490.0,8.157657015196472,2022-06-15 13:41:27
637,Main,6,1,68,Letter designer,True,t_AD,t_AB,True,False,True,Sure same,1,3.141592653589793,266.7,2870.0,7.962067308753666,2022-06-15 13:41:27
638,Main,6,1,69,Letter designer,True,e_AA,e_AA,False,True,True,Sure same,1,3.141592653589793,266.7,2738.0,7.914983005848394,2022-06-15 13:41:27
639,Main,6,1,70,Letter designer,True,h_AD,h_AD,True,True,True,Sure same,1,3.141592653589793,266.7,2820.0,7.944492163932159,2022-06-15 13:41:27
640,Main,6,1,71,Letter designer,True,n_AA,n_AA,False,True,True,Sure same,1,3.141592653589793,266.7,3114.0,8.043663352393944,2022-06-15 13:41:27
641,Main,6,1,72,Letter designer,True,z_AB,z_AD,True,False,True,Sure same,1,3.141592653589793,266.7,2761.0,7.923348211930154,2022-06-15 13:41:27
642,Main,6,0,19,Letter designer,True,u_BD,u_AD,True,False,False,Sure different,1,3.141592653589793,725.0,4759.0,8.46779284112111,2022-06-15 13:41:27
643,Main,6,0,20,Letter designer,True,i_AD,i_AD,True,True,True,Sure same,1,3.141592653589793,800.0,4693.0,8.453827315794417,2022-06-15 13:41:27
644,Main,7,0,1,Graphic designer,True,d_BC,d_AD,True,True,False,Sure same,0,0.0,800.0,8479.0,9.045347797304004,2022-06-15 13:40:25
645,Main,7,0,2,Graphic designer,True,u_AA,u_DD,False,True,False,Sure different,1,3.141592653589793,800.0,4639.0,8.442254104751743,2022-06-15 13:40:25
646,Main,7,0,3,Graphic designer,True,d_AA,d_DD,False,True,False,Sure different,1,3.141592653589793,800.0,3796.0,8.241703159729818,2022-06-15 13:40:25
647,Main,7,0,4,Graphic designer,True,d_AA,d_AA,False,True,True,Sure same,1,3.141592653589793,725.0,3681.0,8.210939733379021,2022-06-15 13:40:25
648,Main,7,0,5,Graphic designer,True,i_DD,i_AA,False,True,False,Sure different,1,3.141592653589793,650.0,3351.0,8.11701408773731,2022-06-15 13:40:25
649,Main,7,0,6,Graphic designer,True,d_AD,d_BC,True,True,False,Sure different,1,3.141592653589793,575.0,3269.0,8.092239406724211,2022-06-15 13:40:25
650,Main,7,0,7,Graphic designer,True,i_BD,i_AD,True,False,False,Sure different,1,3.141592653589793,500.0,3199.0,8.070593539949519,2022-06-15 13:40:25
651,Main,7,0,8,Graphic designer,True,d_AD,d_BD,True,False,False,Sure different,1,3.141592653589793,425.0,3295.0,8.100161446936607,2022-06-15 13:40:25
652,Main,7,0,9,Graphic designer,True,u_AD,u_AB,True,False,True,Sure same,1,3.141592653589793,350.0,3222.0,8.07775756373692,2022-06-15 13:40:25
653,Main,7,0,10,Graphic designer,True,d_AD,d_AB,True,False,True,Sure same,1,3.141592653589793,275.0,2816.0,7.943072717277933,2022-06-15 13:40:25
654,Main,7,0,11,Graphic designer,True,u_AD,u_BC,True,True,False,Sure different,1,3.141592653589793,200.0,2542.0,7.8407064517494,2022-06-15 13:40:25
655,Main,7,0,12,Graphic designer,True,u_AA,u_AA,False,True,True,Sure same,1,3.141592653589793,200.0,2711.0,7.905072849498666,2022-06-15 13:40:25
656,Main,7,0,13,Graphic designer,True,i_BC,i_AD,True,True,False,Sure different,1,3.141592653589793,275.0,2614.0,7.868636894184167,2022-06-15 13:40:25
657,Main,7,0,14,Graphic designer,True,i_AB,i_AD,True,False,True,Sure different,0,0.0,350.0,2751.0,7.919719760924575,2022-06-15 13:40:25
658,Main,7,0,15,Graphic designer,True,u_AD,u_AD,True,True,True,Sure different,0,0.0,425.0,2765.0,7.9247959139564355,2022-06-15 13:40:25
659,Main,7,0,16,Graphic designer,True,u_AA,u_DD,False,True,False,Sure different,1,3.141592653589793,500.0,3167.0,8.06054004653864,2022-06-15 13:40:25
660,Main,7,0,17,Graphic designer,True,d_AD,d_AD,True,True,True,Sure same,1,3.141592653589793,575.0,3253.0,8.087332926473351,2022-06-15 13:40:25
661,Main,7,0,18,Graphic designer,True,i_AA,i_AA,False,True,True,Sure same,1,3.141592653589793,650.0,3436.0,8.142063283104147,2022-06-15 13:40:25
662,Main,7,1,1,Graphic designer,True,n_BC,n_AD,True,True,False,Sure different,1,3.141592653589793,227.8,5474.0,8.607764889600624,2022-06-15 13:40:25
663,Main,7,1,2,Graphic designer,True,a_AD,a_AB,True,False,True,Sure same,1,3.141592653589793,227.8,3869.0,8.260751354700513,2022-06-15 13:40:25
664,Main,7,1,3,Graphic designer,True,h_DD,h_AA,False,True,False,Sure different,1,3.141592653589793,227.8,2692.0,7.898039690764619,2022-06-15 13:40:25
665,Main,7,1,4,Graphic designer,True,r_AB,r_AD,True,False,True,Sure same,1,3.141592653589793,227.8,3207.0,8.073091199693154,2022-06-15 13:40:25
666,Main,7,1,5,Graphic designer,True,z_AD,z_BC,True,True,False,Sure different,1,3.141592653589793,227.8,2749.0,7.918992488165245,2022-06-15 13:40:25
667,Main,7,1,6,Graphic designer,True,n_AD,n_AD,True,True,True,Sure same,1,3.141592653589793,227.8,3033.0,8.017307507688582,2022-06-15 13:40:25
668,Main,7,1,7,Graphic designer,True,e_BC,e_AD,True,True,False,Sure same,0,0.0,227.8,3575.0,8.181720455128108,2022-06-15 13:40:25
669,Main,7,1,8,Graphic designer,True,r_AD,r_AD,True,True,True,Sure same,1,3.141592653589793,227.8,2781.0,7.930565854233965,2022-06-15 13:40:25
670,Main,7,1,9,Graphic designer,True,b_AD,b_BD,True,False,False,Sure different,1,3.141592653589793,227.8,2679.0,7.893198869544609,2022-06-15 13:40:25
671,Main,7,1,10,Graphic designer,True,a_DD,a_AA,False,True,False,Sure different,1,3.141592653589793,227.8,2833.0,7.949091499830517,2022-06-15 13:40:25
672,Main,7,1,11,Graphic designer,True,t_AA,t_AA,False,True,True,Sure same,1,3.141592653589793,227.8,3354.0,8.117908942383155,2022-06-15 13:40:25
673,Main,7,1,12,Graphic designer,True,q_AD,q_BC,True,True,False,Sure different,1,3.141592653589793,227.8,2879.0,7.965198290612176,2022-06-15 13:40:25
674,Main,7,1,13,Graphic designer,True,n_AB,n_AD,True,False,True,Sure same,1,3.141592653589793,227.8,3152.0,8.05579245097777,2022-06-15 13:40:25
675,Main,7,1,14,Graphic designer,True,p_AB,p_AD,True,False,True,Sure same,1,3.141592653589793,227.8,2764.0,7.92443418488756,2022-06-15 13:40:25
676,Main,7,1,15,Graphic designer,True,n_AD,n_BD,True,False,False,Sure different,1,3.141592653589793,227.8,3270.0,8.0925452638913,2022-06-15 13:40:25
677,Main,7,1,16,Graphic designer,True,h_AD,h_BC,True,True,False,Sure different,1,3.141592653589793,227.8,2516.0,7.830425617820331,2022-06-15 13:40:25
678,Main,7,1,17,Graphic designer,True,a_BD,a_AD,True,False,False,Sure different,1,3.141592653589793,227.8,2904.0,7.973844375944687,2022-06-15 13:40:25
679,Main,7,1,18,Graphic designer,True,q_AA,q_AA,False,True,True,Sure same,1,3.141592653589793,227.8,3580.0,8.183118079394745,2022-06-15 13:40:25
680,Main,7,1,19,Graphic designer,True,c_BD,c_AD,True,False,False,Sure different,1,3.141592653589793,227.8,3071.0,8.029758520440822,2022-06-15 13:40:25
681,Main,7,1,20,Graphic designer,True,j_AD,j_AD,True,True,True,Sure same,1,3.141592653589793,227.8,3246.0,8.085178748074537,2022-06-15 13:40:25
682,Main,7,1,21,Graphic designer,True,p_AA,p_AA,False,True,True,Sure same,1,3.141592653589793,227.8,2702.0,7.9017475185201445,2022-06-15 13:40:25
683,Main,7,1,22,Graphic designer,True,j_AB,j_AD,True,False,True,Sure same,1,3.141592653589793,227.8,2553.0,7.845024417241484,2022-06-15 13:40:25
684,Main,7,1,23,Graphic designer,True,b_AD,b_BC,True,True,False,Sure different,1,3.141592653589793,227.8,2571.0,7.852050207265889,2022-06-15 13:40:25
685,Main,7,1,24,Graphic designer,True,z_AD,z_BD,True,False,False,Sure different,1,3.141592653589793,227.8,2547.0,7.842671474979457,2022-06-15 13:40:25
686,Main,7,1,25,Graphic designer,True,j_BD,j_AD,True,False,False,Sure different,1,3.141592653589793,227.8,4249.0,8.354438940114811,2022-06-15 13:40:25
687,Main,7,1,26,Graphic designer,True,a_AD,a_AD,True,True,True,Sure same,1,3.141592653589793,227.8,2746.0,7.917900586327916,2022-06-15 13:40:25
688,Main,7,1,27,Graphic designer,True,r_AA,r_DD,False,True,False,Sure different,1,3.141592653589793,227.8,3251.0,8.086717920303906,2022-06-15 13:40:25
689,Main,7,1,28,Graphic designer,True,n_AA,n_AA,False,True,True,Sure same,1,3.141592653589793,227.8,3199.0,8.070593539949519,2022-06-15 13:40:25
