,StudyID,ParticipantID,TestID,TrialID,Training,isDesigner,First,Second,Composite pair,Congruent pair,Same,Response,Correct,Correct (normalized),ET,RT,RT (normalized),Date
0,Main,0,0,1,Letter designer,True,d_AD,d_BC,True,True,False,Sure different,1,3.141592653589793,800.0,10567.0,9.265491216441031,2022-06-09 10:51:13
1,Main,0,0,2,Letter designer,True,u_AA,u_DD,False,True,False,Sure different,1,3.141592653589793,800.0,8521.0,9.050288983827956,2022-06-09 10:51:13
2,Main,0,0,3,Letter designer,True,d_AA,d_DD,False,True,False,Sure same,0,0.0,800.0,7045.0,8.86007342433278,2022-06-09 10:51:13
3,Main,0,0,4,Letter designer,True,d_AA,d_AA,False,True,True,Sure same,1,3.141592653589793,725.0,3761.0,8.232440158470336,2022-06-09 10:51:13
4,Main,0,0,5,Letter designer,True,i_DD,i_AA,False,True,False,Sure different,1,3.141592653589793,650.0,5251.0,8.566173813637858,2022-06-09 10:51:13
5,Main,0,0,6,Letter designer,True,d_BC,d_AD,True,True,False,Sure different,1,3.141592653589793,575.0,3934.0,8.277411998949004,2022-06-09 10:51:13
6,Main,0,0,7,Letter designer,True,i_AD,i_BD,True,False,False,Sure different,1,3.141592653589793,500.0,3594.0,8.187021067343505,2022-06-09 10:51:13
7,Main,0,0,8,Letter designer,True,d_BD,d_AD,True,False,False,Sure different,1,3.141592653589793,425.0,2715.0,7.906547232368036,2022-06-09 10:51:13
8,Main,0,0,9,Letter designer,True,u_AD,u_AB,True,False,True,Sure different,0,0.0,350.0,2908.0,7.97522083865341,2022-06-09 10:51:13
9,Main,0,0,10,Letter designer,True,d_AD,d_AB,True,False,True,Sure same,1,3.141592653589793,275.0,3499.0,8.160232492367689,2022-06-09 10:51:13
10,Main,0,0,11,Letter designer,True,u_BC,u_AD,True,True,False,Sure different,1,3.141592653589793,200.0,3049.0,8.022568946988255,2022-06-09 10:51:13
11,Main,0,0,12,Letter designer,True,u_AA,u_AA,False,True,True,Sure same,1,3.141592653589793,200.0,2971.0,7.9966538754626075,2022-06-09 10:51:13
12,Main,0,0,13,Letter designer,True,i_AD,i_BC,True,True,False,Sure different,1,3.141592653589793,275.0,2897.0,7.9714309977693505,2022-06-09 10:51:13
13,Main,0,0,14,Letter designer,True,i_AD,i_AB,True,False,True,Sure same,1,3.141592653589793,350.0,3285.0,8.09712193091871,2022-06-09 10:51:13
14,Main,0,0,15,Letter designer,True,u_AD,u_AD,True,True,True,Sure same,1,3.141592653589793,425.0,2658.0,7.885329239273191,2022-06-09 10:51:13
15,Main,0,0,16,Letter designer,True,u_AA,u_DD,False,True,False,Sure different,1,3.141592653589793,500.0,3062.0,8.026823576217629,2022-06-09 10:51:13
16,Main,0,0,17,Letter designer,True,d_AD,d_AD,True,True,True,Sure same,1,3.141592653589793,575.0,3708.0,8.218247926685745,2022-06-09 10:51:13
17,Main,0,0,18,Letter designer,True,i_AA,i_AA,False,True,True,Sure same,1,3.141592653589793,650.0,3804.0,8.24380842366528,2022-06-09 10:51:13
18,Main,0,1,1,Letter designer,True,n_AA,n_DD,False,True,False,Sure different,1,3.141592653589793,227.8,6894.0,8.83840674707681,2022-06-09 10:51:13
19,Main,0,1,2,Letter designer,True,b_AD,b_AD,True,True,True,Sure same,1,3.141592653589793,227.8,3128.0,8.048149101665201,2022-06-09 10:51:13
20,Main,0,1,3,Letter designer,True,a_AD,a_AD,True,True,True,Sure same,1,3.141592653589793,227.8,2435.0,7.79770203551669,2022-06-09 10:51:13
21,Main,0,1,4,Letter designer,True,c_AA,c_AA,False,True,True,Sure same,1,3.141592653589793,227.8,2273.0,7.728855823852543,2022-06-09 10:51:13
22,Main,0,1,5,Letter designer,True,z_AD,z_AD,True,True,True,Sure same,1,3.141592653589793,227.8,2374.0,7.772331575169614,2022-06-09 10:51:13
23,Main,0,1,6,Letter designer,True,n_AD,n_BD,True,False,False,Sure same,0,0.0,227.8,2640.0,7.878534196140362,2022-06-09 10:51:13
24,Main,0,1,7,Letter designer,True,p_AA,p_AA,False,True,True,Sure same,1,3.141592653589793,227.8,2345.0,7.76004068088038,2022-06-09 10:51:13
25,Main,0,1,8,Letter designer,True,z_AD,z_AB,True,False,True,Sure same,1,3.141592653589793,227.8,5232.0,8.562548893137034,2022-06-09 10:51:13
26,Main,0,1,9,Letter designer,True,a_AD,a_BC,True,True,False,Sure same,0,0.0,227.8,2127.0,7.6624678152002375,2022-06-09 10:51:13
27,Main,0,1,10,Letter designer,True,j_AB,j_AD,True,False,True,Sure same,1,3.141592653589793,227.8,2446.0,7.802209316247118,2022-06-09 10:51:13
28,Main,0,1,11,Letter designer,True,c_AA,c_DD,False,True,False,Sure different,1,3.141592653589793,227.8,3080.0,8.03268487596762,2022-06-09 10:51:13
29,Main,0,1,12,Letter designer,True,q_AD,q_BC,True,True,False,Sure same,0,0.0,227.8,3160.0,8.058327306580958,2022-06-09 10:51:13
30,Main,0,1,13,Letter designer,True,c_AD,c_AB,True,False,True,Sure same,1,3.141592653589793,227.8,2344.0,7.759614150696903,2022-06-09 10:51:13
31,Main,0,1,14,Letter designer,True,r_DD,r_AA,False,True,False,Sure different,1,3.141592653589793,227.8,2948.0,7.988882253309227,2022-06-09 10:51:13
32,Main,0,1,15,Letter designer,True,a_AD,a_BD,True,False,False,Sure same,0,0.0,227.8,2778.0,7.9294865233142895,2022-06-09 10:51:13
33,Main,0,1,16,Letter designer,True,n_AA,n_AA,False,True,True,Sure same,1,3.141592653589793,227.8,2424.0,7.793174347189205,2022-06-09 10:51:13
34,Main,0,1,17,Letter designer,True,h_AD,h_AD,True,True,True,Sure same,1,3.141592653589793,227.8,2132.0,7.664815785285735,2022-06-09 10:51:13
35,Main,0,1,18,Letter designer,True,q_AD,q_AB,True,False,True,Sure same,1,3.141592653589793,227.8,2582.0,7.856319571406588,2022-06-09 10:51:13
36,Main,0,1,19,Letter designer,True,c_AD,c_AD,True,True,True,Sure same,1,3.141592653589793,227.8,2268.0,7.7266536648476425,2022-06-09 10:51:13
37,Main,0,1,20,Letter designer,True,z_AD,z_BC,True,True,False,Sure different,1,3.141592653589793,227.8,2957.0,7.9919305198524775,2022-06-09 10:51:13
38,Main,0,1,21,Letter designer,True,p_AB,p_AD,True,False,True,Sure same,1,3.141592653589793,227.8,2989.0,8.002694162283937,2022-06-09 10:51:13
39,Main,0,1,22,Letter designer,True,j_AD,j_BC,True,True,False,Sure different,1,3.141592653589793,227.8,3046.0,8.021584533455107,2022-06-09 10:51:13
40,Main,0,1,23,Letter designer,True,j_AA,j_AA,False,True,True,Sure same,1,3.141592653589793,227.8,3095.0,8.037543185118697,2022-06-09 10:51:13
41,Main,0,1,24,Letter designer,True,z_AA,z_AA,False,True,True,Sure same,1,3.141592653589793,227.8,2264.0,7.724888439323074,2022-06-09 10:51:13
42,Main,0,1,25,Letter designer,True,a_AA,a_AA,False,True,True,Sure same,1,3.141592653589793,227.8,2235.0,7.711996507047669,2022-06-09 10:51:13
43,Main,0,1,26,Letter designer,True,e_AD,e_AB,True,False,True,Sure same,1,3.141592653589793,227.8,2182.0,7.687997166393016,2022-06-09 10:51:13
44,Main,0,1,27,Letter designer,True,a_AA,a_DD,False,True,False,Sure different,1,3.141592653589793,227.8,3088.0,8.035278911144667,2022-06-09 10:51:13
45,Main,0,1,28,Letter designer,True,c_AD,c_BC,True,True,False,Sure same,0,0.0,227.8,2789.0,7.933438387627489,2022-06-09 10:51:13
46,Main,0,1,29,Letter designer,True,e_BD,e_AD,True,False,False,Sure same,0,0.0,227.8,2916.0,7.977968093128549,2022-06-09 10:51:13
47,Main,0,1,30,Letter designer,True,t_AB,t_AD,True,False,True,Sure same,1,3.141592653589793,227.8,2447.0,7.802618063442671,2022-06-09 10:51:13
48,Main,0,1,31,Letter designer,True,b_AA,b_AA,False,True,True,Sure same,1,3.141592653589793,227.8,2340.0,7.757906208351747,2022-06-09 10:51:13
49,Main,0,1,32,Letter designer,True,q_DD,q_AA,False,True,False,Sure different,1,3.141592653589793,227.8,2647.0,7.881182202227102,2022-06-09 10:51:13
50,Main,0,1,33,Letter designer,True,n_BC,n_AD,True,True,False,Sure different,1,3.141592653589793,227.8,2837.0,7.950502434808851,2022-06-09 10:51:13
51,Main,0,1,34,Letter designer,True,h_AA,h_AA,False,True,True,Sure same,1,3.141592653589793,227.8,3049.0,8.022568946988255,2022-06-09 10:51:13
52,Main,0,1,35,Letter designer,True,r_AD,r_BC,True,True,False,Probably different,1,3.141592653589793,227.8,6208.0,8.733594061863055,2022-06-09 10:51:13
53,Main,0,1,36,Letter designer,True,c_AD,c_BD,True,False,False,Sure same,0,0.0,227.8,2722.0,7.909122183211411,2022-06-09 10:51:13
54,Main,0,1,37,Letter designer,True,r_AD,r_AD,True,True,True,Sure same,1,3.141592653589793,227.8,2307.0,7.7437032581737535,2022-06-09 10:51:13
55,Main,0,1,38,Letter designer,True,j_AD,j_BD,True,False,False,Sure different,1,3.141592653589793,227.8,2617.0,7.869783902530146,2022-06-09 10:51:13
56,Main,0,1,39,Letter designer,True,t_BD,t_AD,True,False,False,Sure same,0,0.0,227.8,3096.0,8.037866234709618,2022-06-09 10:51:13
57,Main,0,1,40,Letter designer,True,a_AB,a_AD,True,False,True,Sure same,1,3.141592653589793,227.8,2352.0,7.763021309018518,2022-06-09 10:51:13
58,Main,0,1,41,Letter designer,True,e_AA,e_AA,False,True,True,Sure same,1,3.141592653589793,227.8,2148.0,7.672292455628756,2022-06-09 10:51:13
59,Main,0,1,42,Letter designer,True,b_AA,b_DD,False,True,False,Sure different,1,3.141592653589793,227.8,2785.0,7.932003152361385,2022-06-09 10:51:13
60,Main,0,1,43,Letter designer,True,t_AD,t_BC,True,True,False,Probably different,1,3.141592653589793,227.8,4443.0,8.399085102935908,2022-06-09 10:51:13
61,Main,0,1,44,Letter designer,True,e_AD,e_AD,True,True,True,Sure same,1,3.141592653589793,227.8,2483.0,7.817222785508166,2022-06-09 10:51:13
62,Main,0,1,45,Letter designer,True,t_AA,t_AA,False,True,True,Sure same,1,3.141592653589793,227.8,2632.0,7.875499292445208,2022-06-09 10:51:13
63,Main,0,1,46,Letter designer,True,j_AD,j_AD,True,True,True,Sure same,1,3.141592653589793,227.8,2405.0,7.785305182539862,2022-06-09 10:51:13
64,Main,0,1,47,Letter designer,True,q_AD,q_AD,True,True,True,Sure same,1,3.141592653589793,227.8,2330.0,7.753623546559746,2022-06-09 10:51:13
65,Main,0,1,48,Letter designer,True,n_AB,n_AD,True,False,True,Probably different,0,0.0,227.8,3232.0,8.080856419640986,2022-06-09 10:51:13
66,Main,0,1,49,Letter designer,True,h_AB,h_AD,True,False,True,Sure same,1,3.141592653589793,227.8,2810.0,7.940939762327791,2022-06-09 10:51:13
67,Main,0,1,50,Letter designer,True,t_AD,t_AD,True,True,True,Sure same,1,3.141592653589793,227.8,2170.0,7.682482446534506,2022-06-09 10:51:13
68,Main,0,1,51,Letter designer,True,p_AD,p_AD,True,True,True,Probably same,1,3.141592653589793,227.8,3471.0,8.152198015861787,2022-06-09 10:51:13
69,Main,0,1,52,Letter designer,True,p_DD,p_AA,False,True,False,Sure different,1,3.141592653589793,227.8,2943.0,7.987184748233473,2022-06-09 10:51:13
70,Main,0,1,53,Letter designer,True,b_AD,b_BD,True,False,False,Sure different,1,3.141592653589793,227.8,2948.0,7.988882253309227,2022-06-09 10:51:13
71,Main,0,1,54,Letter designer,True,z_DD,z_AA,False,True,False,Sure different,1,3.141592653589793,227.8,3538.0,8.17131687471973,2022-06-09 10:51:13
72,Main,0,1,55,Letter designer,True,e_AD,e_BC,True,True,False,Sure same,0,0.0,227.8,3352.0,8.117312461601975,2022-06-09 10:51:13
73,Main,0,1,56,Letter designer,True,p_AD,p_BC,True,True,False,Sure different,1,3.141592653589793,227.8,2540.0,7.8399193600125825,2022-06-09 10:51:13
74,Main,0,1,57,Letter designer,True,h_BD,h_AD,True,False,False,Sure different,1,3.141592653589793,227.8,2598.0,7.862497197230545,2022-06-09 10:51:13
75,Main,0,1,58,Letter designer,True,p_BD,p_AD,True,False,False,Sure different,1,3.141592653589793,227.8,2342.0,7.758760544157663,2022-06-09 10:51:13
76,Main,0,1,59,Letter designer,True,h_AA,h_DD,False,True,False,Sure different,1,3.141592653589793,227.8,2485.0,7.818027938530729,2022-06-09 10:51:13
77,Main,0,1,60,Letter designer,True,r_BD,r_AD,True,False,False,Sure different,1,3.141592653589793,227.8,2549.0,7.8434564043761155,2022-06-09 10:51:13
78,Main,0,1,61,Letter designer,True,q_BD,q_AD,True,False,False,Sure same,0,0.0,227.8,3181.0,8.064950891749143,2022-06-09 10:51:13
79,Main,0,1,62,Letter designer,True,z_BD,z_AD,True,False,False,Sure different,1,3.141592653589793,227.8,2559.0,7.847371836159788,2022-06-09 10:51:13
80,Main,0,1,63,Letter designer,True,r_AB,r_AD,True,False,True,Sure same,1,3.141592653589793,227.8,2769.0,7.926241523170962,2022-06-09 10:51:13
81,Main,0,1,64,Letter designer,True,e_DD,e_AA,False,True,False,Sure different,1,3.141592653589793,227.8,2942.0,7.9868449011613825,2022-06-09 10:51:13
82,Main,0,1,65,Letter designer,True,h_AD,h_BC,True,True,False,Sure different,1,3.141592653589793,227.8,2519.0,7.831617276352611,2022-06-09 10:51:13
83,Main,0,1,66,Letter designer,True,b_AD,b_AB,True,False,True,Sure different,0,0.0,227.8,2477.0,7.814803429489359,2022-06-09 10:51:13
84,Main,0,1,67,Letter designer,True,j_AA,j_DD,False,True,False,Sure different,1,3.141592653589793,227.8,2605.0,7.865187954187467,2022-06-09 10:51:13
85,Main,0,1,68,Letter designer,True,n_AD,n_AD,True,True,True,Sure same,1,3.141592653589793,227.8,2842.0,7.952263308657046,2022-06-09 10:51:13
86,Main,0,1,69,Letter designer,True,r_AA,r_AA,False,True,True,Sure same,1,3.141592653589793,227.8,2792.0,7.934513463882263,2022-06-09 10:51:13
87,Main,0,1,70,Letter designer,True,b_AD,b_BC,True,True,False,Sure different,1,3.141592653589793,227.8,2718.0,7.907651594711089,2022-06-09 10:51:13
88,Main,0,1,71,Letter designer,True,t_DD,t_AA,False,True,False,Sure same,0,0.0,227.8,2891.0,7.969357742016346,2022-06-09 10:51:13
89,Main,0,1,72,Letter designer,True,q_AA,q_AA,False,True,True,Sure same,1,3.141592653589793,227.8,2428.0,7.794823152179389,2022-06-09 10:51:13
90,Main,0,0,19,Letter designer,True,u_AD,u_BD,True,False,False,Sure different,1,3.141592653589793,725.0,5288.0,8.573195381531523,2022-06-09 10:51:13
91,Main,0,0,20,Letter designer,True,i_AD,i_AD,True,True,True,Sure same,1,3.141592653589793,800.0,3589.0,8.185628891147607,2022-06-09 10:51:13
92,Main,1,0,1,Letter designer,True,d_AD,d_BC,True,True,False,Probably same,0,0.0,800.0,9654.0,9.175127616220438,2022-06-08 22:02:06
93,Main,1,0,2,Letter designer,True,u_AA,u_DD,False,True,False,Sure different,1,3.141592653589793,800.0,5042.0,8.525558107747866,2022-06-08 22:02:06
94,Main,1,0,3,Letter designer,True,d_DD,d_AA,False,True,False,Sure different,1,3.141592653589793,800.0,4454.0,8.401557847817314,2022-06-08 22:02:06
95,Main,1,0,4,Letter designer,True,d_AA,d_AA,False,True,True,Sure same,1,3.141592653589793,725.0,4695.0,8.454253391642363,2022-06-08 22:02:06
96,Main,1,0,5,Letter designer,True,i_DD,i_AA,False,True,False,Sure different,1,3.141592653589793,650.0,4299.0,8.366137716496281,2022-06-08 22:02:06
97,Main,1,0,6,Letter designer,True,d_BC,d_AD,True,True,False,Sure same,0,0.0,575.0,4108.0,8.32069157104845,2022-06-08 22:02:06
98,Main,1,0,7,Letter designer,True,i_BD,i_AD,True,False,False,Sure different,1,3.141592653589793,500.0,5086.0,8.534246945982066,2022-06-08 22:02:06
99,Main,1,0,8,Letter designer,True,d_BD,d_AD,True,False,False,Probably different,1,3.141592653589793,425.0,3905.0,8.270013062273787,2022-06-08 22:02:06
100,Main,1,0,9,Letter designer,True,u_AD,u_AB,True,False,True,Probably same,1,3.141592653589793,350.0,4192.0,8.340933226000878,2022-06-08 22:02:06
101,Main,1,0,10,Letter designer,True,d_AB,d_AD,True,False,True,Probably same,1,3.141592653589793,275.0,3272.0,8.093156697722637,2022-06-08 22:02:06
102,Main,1,0,11,Letter designer,True,u_AD,u_BC,True,True,False,Sure different,1,3.141592653589793,200.0,4008.0,8.2960476427647,2022-06-08 22:02:06
103,Main,1,0,12,Letter designer,True,u_AA,u_AA,False,True,True,Probably same,1,3.141592653589793,200.0,3782.0,8.238008249218403,2022-06-08 22:02:06
104,Main,1,0,13,Letter designer,True,i_AD,i_BC,True,True,False,Sure different,1,3.141592653589793,275.0,3817.0,8.247220052745229,2022-06-08 22:02:06
105,Main,1,0,14,Letter designer,True,i_AB,i_AD,True,False,True,Probably same,1,3.141592653589793,350.0,4812.0,8.47886807709457,2022-06-08 22:02:06
106,Main,1,0,15,Letter designer,True,u_AD,u_AD,True,True,True,Probably same,1,3.141592653589793,425.0,3569.0,8.18004072349016,2022-06-08 22:02:06
107,Main,1,0,16,Letter designer,True,u_DD,u_AA,False,True,False,Sure different,1,3.141592653589793,500.0,3491.0,8.157943507105037,2022-06-08 22:02:06
108,Main,1,0,17,Letter designer,True,d_AD,d_AD,True,True,True,Probably same,1,3.141592653589793,575.0,5337.0,8.582418976333944,2022-06-08 22:02:06
109,Main,1,0,18,Letter designer,True,i_AA,i_AA,False,True,True,Sure same,1,3.141592653589793,650.0,3986.0,8.29054350077274,2022-06-08 22:02:06
110,Main,1,1,1,Letter designer,True,h_BC,h_AD,True,True,False,Sure different,1,3.141592653589793,188.9,5618.0,8.633731007664188,2022-06-08 22:02:06
111,Main,1,1,2,Letter designer,True,e_AD,e_AD,True,True,True,Probably same,1,3.141592653589793,188.9,3325.0,8.109224953089955,2022-06-08 22:02:06
112,Main,1,1,3,Letter designer,True,c_DD,c_AA,False,True,False,Sure different,1,3.141592653589793,188.9,3157.0,8.057377488557991,2022-06-08 22:02:06
113,Main,1,1,4,Letter designer,True,t_AD,t_BD,True,False,False,Sure different,1,3.141592653589793,188.9,3345.0,8.11522197256233,2022-06-08 22:02:06
114,Main,1,1,5,Letter designer,True,a_AB,a_AD,True,False,True,Probably same,1,3.141592653589793,188.9,3523.0,8.167068178341237,2022-06-08 22:02:06
115,Main,1,1,6,Letter designer,True,h_AD,h_BD,True,False,False,Sure different,1,3.141592653589793,188.9,3670.0,8.207946941048617,2022-06-08 22:02:06
116,Main,1,1,7,Letter designer,True,p_BD,p_AD,True,False,False,Sure different,1,3.141592653589793,188.9,2652.0,7.883069351305753,2022-06-08 22:02:06
117,Main,1,1,8,Letter designer,True,a_AA,a_AA,False,True,True,Probably same,1,3.141592653589793,188.9,3847.0,8.255048902752295,2022-06-08 22:02:06
118,Main,1,1,9,Letter designer,True,n_BD,n_AD,True,False,False,Probably different,1,3.141592653589793,188.9,3872.0,8.261526448396468,2022-06-08 22:02:06
119,Main,1,1,10,Letter designer,True,b_AA,b_DD,False,True,False,Sure different,1,3.141592653589793,188.9,2728.0,7.911324018963353,2022-06-08 22:02:06
120,Main,1,1,11,Letter designer,True,h_AD,h_AB,True,False,True,Probably same,1,3.141592653589793,188.9,3213.0,8.074960359115858,2022-06-08 22:02:06
121,Main,1,1,12,Letter designer,True,c_AD,c_AD,True,True,True,Sure same,1,3.141592653589793,188.9,3181.0,8.064950891749143,2022-06-08 22:02:06
122,Main,1,1,13,Letter designer,True,b_AD,b_BD,True,False,False,Sure different,1,3.141592653589793,188.9,3305.0,8.103191752285786,2022-06-08 22:02:06
123,Main,1,1,14,Letter designer,True,t_AA,t_DD,False,True,False,Sure different,1,3.141592653589793,188.9,2820.0,7.944492163932159,2022-06-08 22:02:06
124,Main,1,1,15,Letter designer,True,b_AA,b_AA,False,True,True,Probably same,1,3.141592653589793,188.9,3006.0,8.00836557031292,2022-06-08 22:02:06
125,Main,1,1,16,Letter designer,True,p_AA,p_AA,False,True,True,Probably same,1,3.141592653589793,188.9,4047.0,8.305731144875866,2022-06-08 22:02:06
126,Main,1,1,17,Letter designer,True,q_AA,q_DD,False,True,False,Sure different,1,3.141592653589793,188.9,3145.0,8.05356916913454,2022-06-08 22:02:06
127,Main,1,1,18,Letter designer,True,p_AD,p_AD,True,True,True,Probably different,0,0.0,188.9,3329.0,8.110427237575024,2022-06-08 22:02:06
128,Main,1,1,19,Letter designer,True,q_AD,q_AD,True,True,True,Probably same,1,3.141592653589793,188.9,3176.0,8.063377822367027,2022-06-08 22:02:06
129,Main,1,1,20,Letter designer,True,q_AD,q_AB,True,False,True,Probably same,1,3.141592653589793,188.9,2949.0,7.989221408815276,2022-06-08 22:02:06
130,Main,1,1,21,Letter designer,True,j_AD,j_AD,True,True,True,Probably same,1,3.141592653589793,188.9,4024.0,8.300031711779575,2022-06-08 22:02:06
131,Main,1,1,22,Letter designer,True,a_AD,a_BC,True,True,False,Probably same,0,0.0,188.9,2854.0,7.956476798036782,2022-06-08 22:02:06
132,Main,1,1,23,Letter designer,True,b_AD,b_AD,True,True,True,Probably same,1,3.141592653589793,188.9,3422.0,8.137980454452139,2022-06-08 22:02:06
133,Main,1,1,24,Letter designer,True,p_AD,p_BC,True,True,False,Probably different,1,3.141592653589793,188.9,3361.0,8.119993827725105,2022-06-08 22:02:06
134,Main,1,1,25,Letter designer,True,e_AA,e_AA,False,True,True,Probably same,1,3.141592653589793,188.9,3499.0,8.160232492367689,2022-06-08 22:02:06
135,Main,1,1,26,Letter designer,True,j_BD,j_AD,True,False,False,Probably different,1,3.141592653589793,188.9,3433.0,8.141189793457691,2022-06-08 22:02:06
136,Main,1,1,27,Letter designer,True,z_AD,z_AB,True,False,True,Probably different,0,0.0,188.9,3587.0,8.185071477532283,2022-06-08 22:02:06
137,Main,1,1,28,Letter designer,True,e_AB,e_AD,True,False,True,Probably same,1,3.141592653589793,188.9,4913.0,8.499640032168648,2022-06-08 22:02:06
138,Main,1,1,29,Letter designer,True,p_AB,p_AD,True,False,True,Probably different,0,0.0,188.9,3085.0,8.034306936339489,2022-06-08 22:02:06
139,Main,1,1,30,Letter designer,True,z_AA,z_AA,False,True,True,Probably same,1,3.141592653589793,188.9,3905.0,8.270013062273787,2022-06-08 22:02:06
140,Main,1,1,31,Letter designer,True,j_AA,j_AA,False,True,True,Sure same,1,3.141592653589793,188.9,3030.0,8.016317898503415,2022-06-08 22:02:06
141,Main,1,1,32,Letter designer,True,n_AB,n_AD,True,False,True,Probably different,0,0.0,188.9,3181.0,8.064950891749143,2022-06-08 22:02:06
142,Main,1,1,33,Letter designer,True,r_AB,r_AD,True,False,True,Probably same,1,3.141592653589793,188.9,3452.0,8.146709052203319,2022-06-08 22:02:06
143,Main,1,1,34,Letter designer,True,a_AA,a_DD,False,True,False,Sure different,1,3.141592653589793,188.9,3702.0,8.216628493133443,2022-06-08 22:02:06
144,Main,1,1,35,Letter designer,True,h_AA,h_DD,False,True,False,Sure different,1,3.141592653589793,188.9,2845.0,7.953318346560431,2022-06-08 22:02:06
145,Main,1,1,36,Letter designer,True,e_BD,e_AD,True,False,False,Probably same,0,0.0,188.9,3424.0,8.138564737261632,2022-06-08 22:02:06
146,Main,1,1,37,Letter designer,True,z_AD,z_AD,True,True,True,Probably same,1,3.141592653589793,188.9,4436.0,8.397508348470257,2022-06-08 22:02:06
147,Main,1,1,38,Letter designer,True,h_AA,h_AA,False,True,True,Probably different,0,0.0,188.9,4079.0,8.313607139317558,2022-06-08 22:02:06
148,Main,1,1,39,Letter designer,True,q_AD,q_BC,True,True,False,Probably same,0,0.0,188.9,4495.0,8.410720946905721,2022-06-08 22:02:06
149,Main,1,1,40,Letter designer,True,r_BC,r_AD,True,True,False,Probably different,1,3.141592653589793,188.9,3494.0,8.158802490694002,2022-06-08 22:02:06
150,Main,1,1,41,Letter designer,True,q_BD,q_AD,True,False,False,Probably different,1,3.141592653589793,188.9,3257.0,8.088561805276234,2022-06-08 22:02:06
151,Main,1,1,42,Letter designer,True,n_BC,n_AD,True,True,False,Sure different,1,3.141592653589793,188.9,2885.0,7.9672801789422,2022-06-08 22:02:06
152,Main,1,1,43,Letter designer,True,n_AA,n_AA,False,True,True,Probably same,1,3.141592653589793,188.9,3526.0,8.167919362957816,2022-06-08 22:02:06
153,Main,1,1,44,Letter designer,True,j_AD,j_BC,True,True,False,Sure different,1,3.141592653589793,188.9,3406.0,8.133293861222633,2022-06-08 22:02:06
154,Main,1,1,45,Letter designer,True,n_DD,n_AA,False,True,False,Sure different,1,3.141592653589793,188.9,2743.0,7.916807490937603,2022-06-08 22:02:06
155,Main,1,1,46,Letter designer,True,e_AD,e_BC,True,True,False,Probably same,0,0.0,188.9,3933.0,8.27715777243181,2022-06-08 22:02:06
156,Main,1,1,47,Letter designer,True,b_AB,b_AD,True,False,True,Probably same,1,3.141592653589793,188.9,3451.0,8.146419323098003,2022-06-08 22:02:06
157,Main,1,1,48,Letter designer,True,b_AD,b_BC,True,True,False,Sure different,1,3.141592653589793,188.9,3264.0,8.090708716083997,2022-06-08 22:02:06
158,Main,1,1,49,Letter designer,True,j_AD,j_AB,True,False,True,Probably same,1,3.141592653589793,188.9,3776.0,8.236420527265391,2022-06-08 22:02:06
159,Main,1,1,50,Letter designer,True,z_BD,z_AD,True,False,False,Probably same,0,0.0,188.9,2963.0,7.993957547573565,2022-06-08 22:02:06
160,Main,1,1,51,Letter designer,True,p_DD,p_AA,False,True,False,Sure different,1,3.141592653589793,188.9,3108.0,8.041734711487537,2022-06-08 22:02:06
161,Main,1,1,52,Letter designer,True,r_AD,r_BD,True,False,False,Sure different,1,3.141592653589793,188.9,2726.0,7.9105906122564775,2022-06-08 22:02:06
162,Main,1,1,53,Letter designer,True,t_AD,t_BC,True,True,False,Sure different,1,3.141592653589793,188.9,2566.0,7.850103545175582,2022-06-08 22:02:06
163,Main,1,1,54,Letter designer,True,a_AD,a_AD,True,True,True,Probably same,1,3.141592653589793,188.9,3267.0,8.09162741160107,2022-06-08 22:02:06
164,Main,1,1,55,Letter designer,True,e_DD,e_AA,False,True,False,Sure different,1,3.141592653589793,188.9,2989.0,8.002694162283937,2022-06-08 22:02:06
165,Main,1,1,56,Letter designer,True,c_AB,c_AD,True,False,True,Probably same,1,3.141592653589793,188.9,3723.0,8.222285073872717,2022-06-08 22:02:06
166,Main,1,1,57,Letter designer,True,r_AA,r_AA,False,True,True,Probably same,1,3.141592653589793,188.9,2972.0,7.99699040583765,2022-06-08 22:02:06
167,Main,1,1,58,Letter designer,True,r_AD,r_AD,True,True,True,Probably same,1,3.141592653589793,188.9,4050.0,8.306472160100585,2022-06-08 22:02:06
168,Main,1,1,59,Letter designer,True,t_AA,t_AA,False,True,True,Probably different,0,0.0,188.9,2990.0,8.003028666384733,2022-06-08 22:02:06
169,Main,1,1,60,Letter designer,True,r_DD,r_AA,False,True,False,Sure different,1,3.141592653589793,188.9,3419.0,8.137103389639302,2022-06-08 22:02:06
170,Main,1,1,61,Letter designer,True,z_BC,z_AD,True,True,False,Sure different,1,3.141592653589793,188.9,2475.0,7.813995675002791,2022-06-08 22:02:06
171,Main,1,1,62,Letter designer,True,t_AD,t_AB,True,False,True,Sure different,0,0.0,188.9,2738.0,7.914983005848394,2022-06-08 22:02:06
172,Main,1,1,63,Letter designer,True,z_DD,z_AA,False,True,False,Sure different,1,3.141592653589793,188.9,2660.0,7.886081401775745,2022-06-08 22:02:06
173,Main,1,1,64,Letter designer,True,j_AA,j_DD,False,True,False,Sure different,1,3.141592653589793,188.9,2551.0,7.844240718141811,2022-06-08 22:02:06
174,Main,1,1,65,Letter designer,True,h_AD,h_AD,True,True,True,Probably same,1,3.141592653589793,188.9,3495.0,8.15908865466791,2022-06-08 22:02:06
175,Main,1,1,66,Letter designer,True,t_AD,t_AD,True,True,True,Probably same,1,3.141592653589793,188.9,3186.0,8.066521490469993,2022-06-08 22:02:06
176,Main,1,1,67,Letter designer,True,q_AA,q_AA,False,True,True,Probably same,1,3.141592653589793,188.9,2685.0,7.895436006942965,2022-06-08 22:02:06
177,Main,1,1,68,Letter designer,True,c_BC,c_AD,True,True,False,Probably different,1,3.141592653589793,188.9,3163.0,8.059276223305648,2022-06-08 22:02:06
178,Main,1,1,69,Letter designer,True,a_AD,a_BD,True,False,False,Probably same,0,0.0,188.9,3484.0,8.155936337972394,2022-06-08 22:02:06
179,Main,1,1,70,Letter designer,True,c_AA,c_AA,False,True,True,Sure same,1,3.141592653589793,188.9,3815.0,8.246695943718557,2022-06-08 22:02:06
180,Main,1,1,71,Letter designer,True,n_AD,n_AD,True,True,True,Probably different,0,0.0,188.9,3068.0,8.028781162487148,2022-06-08 22:02:06
181,Main,1,1,72,Letter designer,True,c_BD,c_AD,True,False,False,Probably same,0,0.0,188.9,3390.0,8.128585200374497,2022-06-08 22:02:06
182,Main,1,0,19,Letter designer,True,u_AD,u_BD,True,False,False,Sure different,1,3.141592653589793,725.0,4283.0,8.36240897761537,2022-06-08 22:02:06
183,Main,1,0,20,Letter designer,True,i_AD,i_AD,True,True,True,Sure same,1,3.141592653589793,800.0,4239.0,8.352082671352637,2022-06-08 22:02:06
184,Main,2,0,1,Letter designer,True,d_BC,d_AD,True,True,False,Probably same,0,0.0,800.0,11602.0,9.358932776026009,2022-06-08 20:22:01
185,Main,2,0,2,Letter designer,True,u_DD,u_AA,False,True,False,Sure different,1,3.141592653589793,800.0,7799.0,8.961750799330497,2022-06-08 20:22:01
186,Main,2,0,3,Letter designer,True,d_AA,d_DD,False,True,False,Sure different,1,3.141592653589793,800.0,5101.0,8.537191877922927,2022-06-08 20:22:01
187,Main,2,0,4,Letter designer,True,d_AA,d_AA,False,True,True,Probably same,1,3.141592653589793,725.0,6949.0,8.846353043314327,2022-06-08 20:22:01
188,Main,2,0,5,Letter designer,True,i_AA,i_DD,False,True,False,Sure different,1,3.141592653589793,650.0,4051.0,8.30671904320269,2022-06-08 20:22:01
189,Main,2,0,6,Letter designer,True,d_BC,d_AD,True,True,False,Sure different,1,3.141592653589793,575.0,3583.0,8.183955717304954,2022-06-08 20:22:01
190,Main,2,0,7,Letter designer,True,i_AD,i_BD,True,False,False,Sure different,1,3.141592653589793,500.0,3719.0,8.22121009392507,2022-06-08 20:22:01
191,Main,2,0,8,Letter designer,True,d_BD,d_AD,True,False,False,Sure different,1,3.141592653589793,425.0,3965.0,8.285261134068948,2022-06-08 20:22:01
192,Main,2,0,9,Letter designer,True,u_AD,u_AB,True,False,True,Probably different,0,0.0,350.0,10018.0,9.212138753917563,2022-06-08 20:22:01
193,Main,2,0,10,Letter designer,True,d_AB,d_AD,True,False,True,Probably same,1,3.141592653589793,275.0,4533.0,8.41913925094085,2022-06-08 20:22:01
194,Main,2,0,11,Letter designer,True,u_BC,u_AD,True,True,False,Sure different,1,3.141592653589793,200.0,3201.0,8.071218539969863,2022-06-08 20:22:01
195,Main,2,0,12,Letter designer,True,u_AA,u_AA,False,True,True,Probably same,1,3.141592653589793,200.0,4715.0,8.458504195067558,2022-06-08 20:22:01
196,Main,2,0,13,Letter designer,True,i_AD,i_BC,True,True,False,Sure different,1,3.141592653589793,275.0,3433.0,8.141189793457691,2022-06-08 20:22:01
197,Main,2,0,14,Letter designer,True,i_AB,i_AD,True,False,True,Probably different,0,0.0,350.0,5367.0,8.588024372176829,2022-06-08 20:22:01
198,Main,2,0,15,Letter designer,True,u_AD,u_AD,True,True,True,Probably same,1,3.141592653589793,425.0,3606.0,8.190354403763262,2022-06-08 20:22:01
199,Main,2,0,16,Letter designer,True,u_DD,u_AA,False,True,False,Sure different,1,3.141592653589793,500.0,5978.0,8.695841342843883,2022-06-08 20:22:01
200,Main,2,0,17,Letter designer,True,d_AD,d_AD,True,True,True,Probably same,1,3.141592653589793,575.0,6451.0,8.771990436532242,2022-06-08 20:22:01
201,Main,2,0,18,Letter designer,True,i_AA,i_AA,False,True,True,Probably same,1,3.141592653589793,650.0,3950.0,8.281470857895167,2022-06-08 20:22:01
202,Main,2,1,1,Letter designer,True,a_AD,a_AB,True,False,True,Probably same,1,3.141592653589793,227.8,6259.0,8.7417757069247,2022-06-08 20:22:01
203,Main,2,1,2,Letter designer,True,h_AD,h_AD,True,True,True,Probably same,1,3.141592653589793,227.8,3747.0,8.228710798793687,2022-06-08 20:22:01
204,Main,2,1,3,Letter designer,True,p_AD,p_AD,True,True,True,Probably same,1,3.141592653589793,227.8,3100.0,8.039157390473237,2022-06-08 20:22:01
205,Main,2,1,4,Letter designer,True,q_BC,q_AD,True,True,False,Probably different,1,3.141592653589793,227.8,3633.0,8.197814032221203,2022-06-08 20:22:01
206,Main,2,1,5,Letter designer,True,q_AA,q_AA,False,True,True,Probably same,1,3.141592653589793,227.8,3401.0,8.131824785007195,2022-06-08 20:22:01
207,Main,2,1,6,Letter designer,True,j_AA,j_AA,False,True,True,Probably same,1,3.141592653589793,227.8,3434.0,8.141481041457421,2022-06-08 20:22:01
208,Main,2,1,7,Letter designer,True,r_AA,r_AA,False,True,True,Probably same,1,3.141592653589793,227.8,3966.0,8.285513309079741,2022-06-08 20:22:01
209,Main,2,1,8,Letter designer,True,r_AD,r_BD,True,False,False,Sure different,1,3.141592653589793,227.8,3451.0,8.146419323098003,2022-06-08 20:22:01
210,Main,2,1,9,Letter designer,True,h_BC,h_AD,True,True,False,Sure different,1,3.141592653589793,227.8,3365.0,8.121183242078828,2022-06-08 20:22:01
211,Main,2,1,10,Letter designer,True,e_BC,e_AD,True,True,False,Probably different,1,3.141592653589793,227.8,4402.0,8.389814262086407,2022-06-08 20:22:01
212,Main,2,1,11,Letter designer,True,h_AB,h_AD,True,False,True,Probably same,1,3.141592653589793,227.8,5350.0,8.584851839890053,2022-06-08 20:22:01
213,Main,2,1,12,Letter designer,True,c_DD,c_AA,False,True,False,Sure different,1,3.141592653589793,227.8,2967.0,7.995306620290822,2022-06-08 20:22:01
214,Main,2,1,13,Letter designer,True,n_AD,n_BD,True,False,False,Probably different,1,3.141592653589793,227.8,4240.0,8.352318548226004,2022-06-08 20:22:01
215,Main,2,1,14,Letter designer,True,b_BD,b_AD,True,False,False,Sure different,1,3.141592653589793,227.8,3028.0,8.01565761455734,2022-06-08 20:22:01
216,Main,2,1,15,Letter designer,True,p_AD,p_BC,True,True,False,Sure different,1,3.141592653589793,227.8,3050.0,8.022896869601457,2022-06-08 20:22:01
217,Main,2,1,16,Letter designer,True,z_AD,z_AD,True,True,True,Probably same,1,3.141592653589793,227.8,3916.0,8.272826003650401,2022-06-08 20:22:01
218,Main,2,1,17,Letter designer,True,e_AB,e_AD,True,False,True,Probably different,0,0.0,227.8,6251.0,8.740496729931813,2022-06-08 20:22:01
219,Main,2,1,18,Letter designer,True,a_AD,a_BD,True,False,False,Sure different,1,3.141592653589793,227.8,3571.0,8.18060094759445,2022-06-08 20:22:01
220,Main,2,1,19,Letter designer,True,p_AA,p_DD,False,True,False,Sure different,1,3.141592653589793,227.8,2812.0,7.941651252930556,2022-06-08 20:22:01
221,Main,2,1,20,Letter designer,True,c_AD,c_AB,True,False,True,Probably same,1,3.141592653589793,227.8,3450.0,8.146129510025405,2022-06-08 20:22:01
222,Main,2,1,21,Letter designer,True,r_AD,r_AD,True,True,True,Probably same,1,3.141592653589793,227.8,3785.0,8.23880116587155,2022-06-08 20:22:01
223,Main,2,1,22,Letter designer,True,e_AA,e_AA,False,True,True,Probably same,1,3.141592653589793,227.8,3198.0,8.0702808933939,2022-06-08 20:22:01
224,Main,2,1,23,Letter designer,True,q_AD,q_AD,True,True,True,Probably same,1,3.141592653589793,227.8,3016.0,8.011686729127847,2022-06-08 20:22:01
225,Main,2,1,24,Letter designer,True,z_AD,z_BC,True,True,False,Sure different,1,3.141592653589793,227.8,2901.0,7.972810784121404,2022-06-08 20:22:01
226,Main,2,1,25,Letter designer,True,e_DD,e_AA,False,True,False,Sure different,1,3.141592653589793,227.8,2786.0,7.932362154339751,2022-06-08 20:22:01
227,Main,2,1,26,Letter designer,True,n_AD,n_AD,True,True,True,Probably same,1,3.141592653589793,227.8,3431.0,8.14060704285845,2022-06-08 20:22:01
228,Main,2,1,27,Letter designer,True,h_AA,h_DD,False,True,False,Sure different,1,3.141592653589793,227.8,4867.0,8.490233009833455,2022-06-08 20:22:01
229,Main,2,1,28,Letter designer,True,h_AA,h_AA,False,True,True,Probably same,1,3.141592653589793,227.8,6418.0,8.766861821669803,2022-06-08 20:22:01
230,Main,2,1,29,Letter designer,True,j_AD,j_AB,True,False,True,Probably different,0,0.0,227.8,6099.0,8.715880102296456,2022-06-08 20:22:01
231,Main,2,1,30,Letter designer,True,q_AD,q_AB,True,False,True,Probably same,1,3.141592653589793,227.8,3236.0,8.082093278178382,2022-06-08 20:22:01
232,Main,2,1,31,Letter designer,True,t_BD,t_AD,True,False,False,Probably different,1,3.141592653589793,227.8,3549.0,8.174421152646497,2022-06-08 20:22:01
233,Main,2,1,32,Letter designer,True,q_AD,q_BD,True,False,False,Probably same,0,0.0,227.8,3568.0,8.1797604936999,2022-06-08 20:22:01
234,Main,2,1,33,Letter designer,True,j_DD,j_AA,False,True,False,Sure different,1,3.141592653589793,227.8,3181.0,8.064950891749143,2022-06-08 20:22:01
235,Main,2,1,34,Letter designer,True,e_BD,e_AD,True,False,False,Sure different,1,3.141592653589793,227.8,3150.0,8.055157731819678,2022-06-08 20:22:01
236,Main,2,1,35,Letter designer,True,n_AA,n_AA,False,True,True,Probably same,1,3.141592653589793,227.8,3584.0,8.18423477409482,2022-06-08 20:22:01
237,Main,2,1,36,Letter designer,True,n_AB,n_AD,True,False,True,Probably different,0,0.0,227.8,3534.0,8.170185652879642,2022-06-08 20:22:01
238,Main,2,1,37,Letter designer,True,r_AD,r_AB,True,False,True,Sure same,1,3.141592653589793,227.8,3768.0,8.234299635696253,2022-06-08 20:22:01
239,Main,2,1,38,Letter designer,True,p_BD,p_AD,True,False,False,Sure different,1,3.141592653589793,227.8,2903.0,7.97349996402463,2022-06-08 20:22:01
240,Main,2,1,39,Letter designer,True,a_AD,a_AD,True,True,True,Sure same,1,3.141592653589793,227.8,6746.0,8.816705015621595,2022-06-08 20:22:01
241,Main,2,1,40,Letter designer,True,t_AD,t_BC,True,True,False,Probably same,0,0.0,227.8,6050.0,8.707813551024888,2022-06-08 20:22:01
242,Main,2,1,41,Letter designer,True,j_BC,j_AD,True,True,False,Sure different,1,3.141592653589793,227.8,2717.0,7.907283609426348,2022-06-08 20:22:01
243,Main,2,1,42,Letter designer,True,c_AA,c_AA,False,True,True,Probably same,1,3.141592653589793,227.8,3185.0,8.066207568006265,2022-06-08 20:22:01
244,Main,2,1,43,Letter designer,True,h_AD,h_BD,True,False,False,Sure different,1,3.141592653589793,227.8,2832.0,7.94873845481361,2022-06-08 20:22:01
245,Main,2,1,44,Letter designer,True,a_AA,a_AA,False,True,True,Sure same,1,3.141592653589793,227.8,3167.0,8.06054004653864,2022-06-08 20:22:01
246,Main,2,1,45,Letter designer,True,b_AD,b_AD,True,True,True,Sure same,1,3.141592653589793,227.8,3733.0,8.224967478914584,2022-06-08 20:22:01
247,Main,2,1,46,Letter designer,True,z_DD,z_AA,False,True,False,Sure different,1,3.141592653589793,227.8,2750.0,7.919356190660617,2022-06-08 20:22:01
248,Main,2,1,47,Letter designer,True,j_BD,j_AD,True,False,False,Sure different,1,3.141592653589793,227.8,2750.0,7.919356190660617,2022-06-08 20:22:01
249,Main,2,1,48,Letter designer,True,b_AA,b_AA,False,True,True,Probably same,1,3.141592653589793,227.8,4068.0,8.31090675716845,2022-06-08 20:22:01
250,Main,2,1,49,Letter designer,True,z_AD,z_BD,True,False,False,Sure different,1,3.141592653589793,227.8,2799.0,7.937017489515454,2022-06-08 20:22:01
251,Main,2,1,50,Letter designer,True,n_BC,n_AD,True,True,False,Sure different,1,3.141592653589793,227.8,3100.0,8.039157390473237,2022-06-08 20:22:01
252,Main,2,1,51,Letter designer,True,t_DD,t_AA,False,True,False,Sure different,1,3.141592653589793,227.8,2835.0,7.949797216161852,2022-06-08 20:22:01
253,Main,2,1,52,Letter designer,True,a_DD,a_AA,False,True,False,Sure different,1,3.141592653589793,227.8,2637.0,7.877397186353287,2022-06-08 20:22:01
254,Main,2,1,53,Letter designer,True,j_AD,j_AD,True,True,True,Probably same,1,3.141592653589793,227.8,3996.0,8.293049139768444,2022-06-08 20:22:01
255,Main,2,1,54,Letter designer,True,c_BD,c_AD,True,False,False,Probably different,1,3.141592653589793,227.8,3234.0,8.081475040137052,2022-06-08 20:22:01
256,Main,2,1,55,Letter designer,True,b_AB,b_AD,True,False,True,Probably same,1,3.141592653589793,227.8,4851.0,8.486940148245216,2022-06-08 20:22:01
257,Main,2,1,56,Letter designer,True,a_BC,a_AD,True,True,False,Probably different,1,3.141592653589793,227.8,4399.0,8.389132521348719,2022-06-08 20:22:01
258,Main,2,1,57,Letter designer,True,t_AD,t_AD,True,True,True,Probably same,1,3.141592653589793,227.8,3517.0,8.165363632473982,2022-06-08 20:22:01
259,Main,2,1,58,Letter designer,True,e_AD,e_AD,True,True,True,Probably different,0,0.0,227.8,5517.0,8.61558951327243,2022-06-08 20:22:01
260,Main,2,1,59,Letter designer,True,n_AA,n_DD,False,True,False,Sure different,1,3.141592653589793,227.8,2833.0,7.949091499830517,2022-06-08 20:22:01
261,Main,2,1,60,Letter designer,True,z_AA,z_AA,False,True,True,Probably same,1,3.141592653589793,227.8,3700.0,8.216088098632316,2022-06-08 20:22:01
262,Main,2,1,61,Letter designer,True,t_AA,t_AA,False,True,True,Sure same,1,3.141592653589793,227.8,3733.0,8.224967478914584,2022-06-08 20:22:01
263,Main,2,1,62,Letter designer,True,c_AD,c_BC,True,True,False,Probably different,1,3.141592653589793,227.8,4219.0,8.347353412124338,2022-06-08 20:22:01
264,Main,2,1,63,Letter designer,True,p_AD,p_AB,True,False,True,Sure same,1,3.141592653589793,227.8,3882.0,8.264105763728956,2022-06-08 20:22:01
265,Main,2,1,64,Letter designer,True,r_BC,r_AD,True,True,False,Sure different,1,3.141592653589793,227.8,2926.0,7.98139158158007,2022-06-08 20:22:01
266,Main,2,1,65,Letter designer,True,p_AA,p_AA,False,True,True,Probably different,0,0.0,227.8,3559.0,8.177234885510194,2022-06-08 20:22:01
267,Main,2,1,66,Letter designer,True,t_AD,t_AB,True,False,True,Probably same,1,3.141592653589793,227.8,4009.0,8.296297112642508,2022-06-08 20:22:01
268,Main,2,1,67,Letter designer,True,b_DD,b_AA,False,True,False,Sure different,1,3.141592653589793,227.8,3296.0,8.100464891029363,2022-06-08 20:22:01
269,Main,2,1,68,Letter designer,True,q_DD,q_AA,False,True,False,Sure different,1,3.141592653589793,227.8,2977.0,7.998671361015776,2022-06-08 20:22:01
270,Main,2,1,69,Letter designer,True,c_AD,c_AD,True,True,True,Sure same,1,3.141592653589793,227.8,3473.0,8.152774052744075,2022-06-08 20:22:01
271,Main,2,1,70,Letter designer,True,z_AD,z_AB,True,False,True,Sure same,1,3.141592653589793,227.8,4346.0,8.377011160816375,2022-06-08 20:22:01
272,Main,2,1,71,Letter designer,True,r_DD,r_AA,False,True,False,Sure different,1,3.141592653589793,227.8,2949.0,7.989221408815276,2022-06-08 20:22:01
273,Main,2,1,72,Letter designer,True,b_AD,b_BC,True,True,False,Sure different,1,3.141592653589793,227.8,7751.0,8.955577146281511,2022-06-08 20:22:01
274,Main,2,0,19,Letter designer,True,u_AD,u_BD,True,False,False,Sure different,1,3.141592653589793,725.0,4618.0,8.43771698991444,2022-06-08 20:22:01
275,Main,2,0,20,Letter designer,True,i_AD,i_AD,True,True,True,Sure same,1,3.141592653589793,800.0,5665.0,8.642062173462106,2022-06-08 20:22:01
276,Main,3,0,1,Letter designer,True,d_BC,d_AD,True,True,False,Sure same,0,0.0,800.0,8175.0,9.008835995765454,2022-06-08 19:49:15
277,Main,3,0,2,Letter designer,True,u_DD,u_AA,False,True,False,Sure different,1,3.141592653589793,800.0,5006.0,8.518392471991719,2022-06-08 19:49:15
278,Main,3,0,3,Letter designer,True,d_AA,d_DD,False,True,False,Probably same,0,0.0,800.0,4340.0,8.375629627094451,2022-06-08 19:49:15
279,Main,3,0,4,Letter designer,True,d_AA,d_AA,False,True,True,Sure same,1,3.141592653589793,725.0,3823.0,8.248790733696413,2022-06-08 19:49:15
280,Main,3,0,5,Letter designer,True,i_AA,i_DD,False,True,False,Sure different,1,3.141592653589793,650.0,3426.0,8.139148678884066,2022-06-08 19:49:15
281,Main,3,0,6,Letter designer,True,d_BC,d_AD,True,True,False,Probably same,0,0.0,575.0,4274.0,8.360305435879093,2022-06-08 19:49:15
282,Main,3,0,7,Letter designer,True,i_BD,i_AD,True,False,False,Sure different,1,3.141592653589793,500.0,3484.0,8.155936337972394,2022-06-08 19:49:15
283,Main,3,0,8,Letter designer,True,d_BD,d_AD,True,False,False,Sure same,0,0.0,425.0,3655.0,8.203851372183879,2022-06-08 19:49:15
284,Main,3,0,9,Letter designer,True,u_AB,u_AD,True,False,True,Sure same,1,3.141592653589793,350.0,2805.0,7.9391588179567965,2022-06-08 19:49:15
285,Main,3,0,10,Letter designer,True,d_AB,d_AD,True,False,True,Sure same,1,3.141592653589793,275.0,3563.0,8.178358165605836,2022-06-08 19:49:15
286,Main,3,0,11,Letter designer,True,u_AD,u_BC,True,True,False,Sure different,1,3.141592653589793,200.0,3018.0,8.012349639327795,2022-06-08 19:49:15
287,Main,3,0,12,Letter designer,True,u_AA,u_AA,False,True,True,Sure same,1,3.141592653589793,200.0,2889.0,7.968665700466235,2022-06-08 19:49:15
288,Main,3,0,13,Letter designer,True,i_AD,i_BC,True,True,False,Sure different,1,3.141592653589793,275.0,2630.0,7.874739125171811,2022-06-08 19:49:15
289,Main,3,0,14,Letter designer,True,i_AB,i_AD,True,False,True,Probably same,1,3.141592653589793,350.0,4179.0,8.337827262447915,2022-06-08 19:49:15
290,Main,3,0,15,Letter designer,True,u_AD,u_AD,True,True,True,Sure same,1,3.141592653589793,425.0,2911.0,7.976251943745623,2022-06-08 19:49:15
291,Main,3,0,16,Letter designer,True,u_AA,u_DD,False,True,False,Sure different,1,3.141592653589793,500.0,2870.0,7.962067308753666,2022-06-08 19:49:15
292,Main,3,0,17,Letter designer,True,d_AD,d_AD,True,True,True,Sure same,1,3.141592653589793,575.0,3630.0,8.196987927258897,2022-06-08 19:49:15
293,Main,3,0,18,Letter designer,True,i_AA,i_AA,False,True,True,Probably different,0,0.0,650.0,5048.0,8.52674740422105,2022-06-08 19:49:15
294,Main,3,1,1,Letter designer,True,a_AA,a_AA,False,True,True,Probably same,1,3.141592653589793,344.4,5643.0,8.63817111796914,2022-06-08 19:49:15
295,Main,3,1,2,Letter designer,True,e_AA,e_AA,False,True,True,Probably same,1,3.141592653589793,344.4,4946.0,8.506334448081361,2022-06-08 19:49:15
296,Main,3,1,3,Letter designer,True,t_AB,t_AD,True,False,True,Probably same,1,3.141592653589793,344.4,3208.0,8.073402968986406,2022-06-08 19:49:15
297,Main,3,1,4,Letter designer,True,h_BC,h_AD,True,True,False,Sure different,1,3.141592653589793,344.4,3002.0,8.007034012193408,2022-06-08 19:49:15
298,Main,3,1,5,Letter designer,True,b_AA,b_AA,False,True,True,Sure same,1,3.141592653589793,344.4,3063.0,8.027150106832774,2022-06-08 19:49:15
299,Main,3,1,6,Letter designer,True,a_AD,a_BD,True,False,False,Probably different,1,3.141592653589793,344.4,4454.0,8.401557847817314,2022-06-08 19:49:15
300,Main,3,1,7,Letter designer,True,j_AA,j_AA,False,True,True,Probably different,0,0.0,344.4,4390.0,8.387084506069217,2022-06-08 19:49:15
301,Main,3,1,8,Letter designer,True,n_BC,n_AD,True,True,False,Sure different,1,3.141592653589793,344.4,2994.0,8.004365564979574,2022-06-08 19:49:15
302,Main,3,1,9,Letter designer,True,n_AD,n_AB,True,False,True,Sure same,1,3.141592653589793,344.4,3292.0,8.09925056179696,2022-06-08 19:49:15
303,Main,3,1,10,Letter designer,True,j_AD,j_BD,True,False,False,Sure different,1,3.141592653589793,344.4,3035.0,8.017966703493599,2022-06-08 19:49:15
304,Main,3,1,11,Letter designer,True,z_AB,z_AD,True,False,True,Sure same,1,3.141592653589793,344.4,3166.0,8.060224240440958,2022-06-08 19:49:15
305,Main,3,1,12,Letter designer,True,r_AA,r_AA,False,True,True,Sure same,1,3.141592653589793,344.4,2664.0,7.88758403166028,2022-06-08 19:49:15
306,Main,3,1,13,Letter designer,True,p_AA,p_AA,False,True,True,Sure same,1,3.141592653589793,344.4,2719.0,7.908019444632471,2022-06-08 19:49:15
307,Main,3,1,14,Letter designer,True,r_AD,r_AD,True,True,True,Sure same,1,3.141592653589793,344.4,2592.0,7.860185057472165,2022-06-08 19:49:15
308,Main,3,1,15,Letter designer,True,n_AD,n_AD,True,True,True,Sure same,1,3.141592653589793,344.4,2553.0,7.845024417241484,2022-06-08 19:49:15
309,Main,3,1,16,Letter designer,True,b_AB,b_AD,True,False,True,Probably different,0,0.0,344.4,3122.0,8.046229101075378,2022-06-08 19:49:15
310,Main,3,1,17,Letter designer,True,t_AD,t_BD,True,False,False,Probably different,1,3.141592653589793,344.4,3784.0,8.238536930171769,2022-06-08 19:49:15
311,Main,3,1,18,Letter designer,True,c_AA,c_AA,False,True,True,Sure same,1,3.141592653589793,344.4,2816.0,7.943072717277933,2022-06-08 19:49:15
312,Main,3,1,19,Letter designer,True,q_AD,q_AD,True,True,True,Probably same,1,3.141592653589793,344.4,4019.0,8.2987883944492,2022-06-08 19:49:15
313,Main,3,1,20,Letter designer,True,q_AA,q_AA,False,True,True,Sure same,1,3.141592653589793,344.4,2791.0,7.934155233536322,2022-06-08 19:49:15
314,Main,3,1,21,Letter designer,True,b_AD,b_AD,True,True,True,Probably same,1,3.141592653589793,344.4,3585.0,8.184513753033722,2022-06-08 19:49:15
315,Main,3,1,22,Letter designer,True,h_AD,h_AD,True,True,True,Sure same,1,3.141592653589793,344.4,2810.0,7.940939762327791,2022-06-08 19:49:15
316,Main,3,1,23,Letter designer,True,z_DD,z_AA,False,True,False,Sure different,1,3.141592653589793,344.4,3012.0,8.010359588919783,2022-06-08 19:49:15
317,Main,3,1,24,Letter designer,True,t_AA,t_DD,False,True,False,Sure different,1,3.141592653589793,344.4,3038.0,8.018954683155718,2022-06-08 19:49:15
318,Main,3,1,25,Letter designer,True,a_AB,a_AD,True,False,True,Probably different,0,0.0,344.4,3736.0,8.225770799348734,2022-06-08 19:49:15
319,Main,3,1,26,Letter designer,True,z_AD,z_BC,True,True,False,Sure different,1,3.141592653589793,344.4,2776.0,7.9287663216266955,2022-06-08 19:49:15
320,Main,3,1,27,Letter designer,True,e_AD,e_AB,True,False,True,Probably different,0,0.0,344.4,3637.0,8.19891444498699,2022-06-08 19:49:15
321,Main,3,1,28,Letter designer,True,h_BD,h_AD,True,False,False,Sure different,1,3.141592653589793,344.4,3260.0,8.089482474360754,2022-06-08 19:49:15
322,Main,3,1,29,Letter designer,True,p_AD,p_AB,True,False,True,Sure same,1,3.141592653589793,344.4,2824.0,7.945909598613133,2022-06-08 19:49:15
323,Main,3,1,30,Letter designer,True,h_AA,h_AA,False,True,True,Sure same,1,3.141592653589793,344.4,2852.0,7.955775781534187,2022-06-08 19:49:15
324,Main,3,1,31,Letter designer,True,r_BD,r_AD,True,False,False,Sure different,1,3.141592653589793,344.4,3100.0,8.039157390473237,2022-06-08 19:49:15
325,Main,3,1,32,Letter designer,True,j_AD,j_BC,True,True,False,Sure different,1,3.141592653589793,344.4,2672.0,7.890582534656536,2022-06-08 19:49:15
326,Main,3,1,33,Letter designer,True,e_AD,e_BC,True,True,False,Probably same,0,0.0,344.4,4152.0,8.331345424845724,2022-06-08 19:49:15
327,Main,3,1,34,Letter designer,True,j_AD,j_AD,True,True,True,Probably different,0,0.0,344.4,3313.0,8.105609402299896,2022-06-08 19:49:15
328,Main,3,1,35,Letter designer,True,p_AD,p_AD,True,True,True,Sure same,1,3.141592653589793,344.4,3328.0,8.1101268019411,2022-06-08 19:49:15
329,Main,3,1,36,Letter designer,True,t_AD,t_BC,True,True,False,Probably different,1,3.141592653589793,344.4,3138.0,8.051340933292979,2022-06-08 19:49:15
330,Main,3,1,37,Letter designer,True,t_AA,t_AA,False,True,True,Sure same,1,3.141592653589793,344.4,2676.0,7.892078421248119,2022-06-08 19:49:15
331,Main,3,1,38,Letter designer,True,e_AA,e_DD,False,True,False,Sure different,1,3.141592653589793,344.4,3007.0,8.008698182988528,2022-06-08 19:49:15
332,Main,3,1,39,Letter designer,True,n_AA,n_DD,False,True,False,Sure different,1,3.141592653589793,344.4,2825.0,7.946263643580541,2022-06-08 19:49:15
333,Main,3,1,40,Letter designer,True,b_AD,b_BC,True,True,False,Sure different,1,3.141592653589793,344.4,2902.0,7.973155433444133,2022-06-08 19:49:15
334,Main,3,1,41,Letter designer,True,b_BD,b_AD,True,False,False,Sure different,1,3.141592653589793,344.4,3228.0,8.07961802938984,2022-06-08 19:49:15
335,Main,3,1,42,Letter designer,True,p_AD,p_BD,True,False,False,Sure different,1,3.141592653589793,344.4,2848.0,7.954372272531867,2022-06-08 19:49:15
336,Main,3,1,43,Letter designer,True,r_AD,r_AB,True,False,True,Probably same,1,3.141592653589793,344.4,3335.0,8.112227958349724,2022-06-08 19:49:15
337,Main,3,1,44,Letter designer,True,c_AB,c_AD,True,False,True,Probably same,1,3.141592653589793,344.4,5770.0,8.660427359502146,2022-06-08 19:49:15
338,Main,3,1,45,Letter designer,True,z_AD,z_BD,True,False,False,Sure different,1,3.141592653589793,344.4,2832.0,7.94873845481361,2022-06-08 19:49:15
339,Main,3,1,46,Letter designer,True,r_AD,r_BC,True,True,False,Sure different,1,3.141592653589793,344.4,3414.0,8.135639903354386,2022-06-08 19:49:15
340,Main,3,1,47,Letter designer,True,p_DD,p_AA,False,True,False,Sure different,1,3.141592653589793,344.4,2790.0,7.933796874815411,2022-06-08 19:49:15
341,Main,3,1,48,Letter designer,True,b_AA,b_DD,False,True,False,Sure different,1,3.141592653589793,344.4,2764.0,7.92443418488756,2022-06-08 19:49:15
342,Main,3,1,49,Letter designer,True,h_AA,h_DD,False,True,False,Sure different,1,3.141592653589793,344.4,2912.0,7.976595409316577,2022-06-08 19:49:15
343,Main,3,1,50,Letter designer,True,n_BD,n_AD,True,False,False,Sure different,1,3.141592653589793,344.4,2844.0,7.952966790923131,2022-06-08 19:49:15
344,Main,3,1,51,Letter designer,True,a_DD,a_AA,False,True,False,Sure different,1,3.141592653589793,344.4,2767.0,7.925518979786926,2022-06-08 19:49:15
345,Main,3,1,52,Letter designer,True,c_AD,c_BD,True,False,False,Sure different,1,3.141592653589793,344.4,2790.0,7.933796874815411,2022-06-08 19:49:15
346,Main,3,1,53,Letter designer,True,c_BC,c_AD,True,True,False,Sure different,1,3.141592653589793,344.4,3162.0,8.058960017769417,2022-06-08 19:49:15
347,Main,3,1,54,Letter designer,True,z_AD,z_AD,True,True,True,Sure same,1,3.141592653589793,344.4,3452.0,8.146709052203319,2022-06-08 19:49:15
348,Main,3,1,55,Letter designer,True,q_AA,q_DD,False,True,False,Sure different,1,3.141592653589793,344.4,2746.0,7.917900586327916,2022-06-08 19:49:15
349,Main,3,1,56,Letter designer,True,q_BD,q_AD,True,False,False,Sure different,1,3.141592653589793,344.4,3238.0,8.08271113423758,2022-06-08 19:49:15
350,Main,3,1,57,Letter designer,True,q_AB,q_AD,True,False,True,Probably same,1,3.141592653589793,344.4,2950.0,7.989560449333865,2022-06-08 19:49:15
351,Main,3,1,58,Letter designer,True,a_BC,a_AD,True,True,False,Probably different,1,3.141592653589793,344.4,2840.0,7.951559331155252,2022-06-08 19:49:15
352,Main,3,1,59,Letter designer,True,t_AD,t_AD,True,True,True,Probably different,0,0.0,344.4,3452.0,8.146709052203319,2022-06-08 19:49:15
353,Main,3,1,60,Letter designer,True,e_AD,e_AD,True,True,True,Sure same,1,3.141592653589793,344.4,2828.0,7.947325027016463,2022-06-08 19:49:15
354,Main,3,1,61,Letter designer,True,e_AD,e_BD,True,False,False,Probably different,1,3.141592653589793,344.4,3244.0,8.084562415235304,2022-06-08 19:49:15
355,Main,3,1,62,Letter designer,True,n_AA,n_AA,False,True,True,Sure different,0,0.0,344.4,2845.0,7.953318346560431,2022-06-08 19:49:15
356,Main,3,1,63,Letter designer,True,r_DD,r_AA,False,True,False,Sure different,1,3.141592653589793,344.4,2808.0,7.940227765145702,2022-06-08 19:49:15
357,Main,3,1,64,Letter designer,True,z_AA,z_AA,False,True,True,Probably same,1,3.141592653589793,344.4,3173.0,8.062432791583195,2022-06-08 19:49:15
358,Main,3,1,65,Letter designer,True,h_AB,h_AD,True,False,True,Probably same,1,3.141592653589793,344.4,2967.0,7.995306620290822,2022-06-08 19:49:15
359,Main,3,1,66,Letter designer,True,j_AB,j_AD,True,False,True,Sure same,1,3.141592653589793,344.4,4022.0,8.299534570332597,2022-06-08 19:49:15
360,Main,3,1,67,Letter designer,True,c_AD,c_AD,True,True,True,Probably same,1,3.141592653589793,344.4,3060.0,8.026170194946426,2022-06-08 19:49:15
361,Main,3,1,68,Letter designer,True,c_DD,c_AA,False,True,False,Sure different,1,3.141592653589793,344.4,2891.0,7.969357742016346,2022-06-08 19:49:15
362,Main,3,1,69,Letter designer,True,a_AD,a_AD,True,True,True,Probably different,0,0.0,344.4,2998.0,8.005700678662542,2022-06-08 19:49:15
363,Main,3,1,70,Letter designer,True,p_AD,p_BC,True,True,False,Sure different,1,3.141592653589793,344.4,2722.0,7.909122183211411,2022-06-08 19:49:15
364,Main,3,1,71,Letter designer,True,q_AD,q_BC,True,True,False,Probably different,1,3.141592653589793,344.4,2964.0,7.994294986415977,2022-06-08 19:49:15
365,Main,3,1,72,Letter designer,True,j_DD,j_AA,False,True,False,Sure different,1,3.141592653589793,344.4,3272.0,8.093156697722637,2022-06-08 19:49:15
366,Main,3,0,19,Letter designer,True,u_BD,u_AD,True,False,False,Sure different,1,3.141592653589793,725.0,3230.0,8.080237416216702,2022-06-08 19:49:15
367,Main,3,0,20,Letter designer,True,i_AD,i_AD,True,True,True,Probably different,0,0.0,800.0,4252.0,8.355144739461839,2022-06-08 19:49:15
368,Main,4,0,1,Letter designer,True,d_BC,d_AD,True,True,False,Probably same,0,0.0,800.0,11624.0,9.36082720525012,2022-06-08 18:16:03
369,Main,4,0,2,Letter designer,True,u_DD,u_AA,False,True,False,Sure different,1,3.141592653589793,800.0,7152.0,8.87514731685335,2022-06-08 18:16:03
370,Main,4,0,3,Letter designer,True,d_DD,d_AA,False,True,False,Sure different,1,3.141592653589793,800.0,4144.0,8.329416783939319,2022-06-08 18:16:03
371,Main,4,0,4,Letter designer,True,d_AA,d_AA,False,True,True,Sure same,1,3.141592653589793,725.0,3832.0,8.251142139090751,2022-06-08 18:16:03
372,Main,4,0,5,Letter designer,True,i_DD,i_AA,False,True,False,Sure different,1,3.141592653589793,650.0,4105.0,8.31996102188653,2022-06-08 18:16:03
373,Main,4,0,6,Letter designer,True,d_BC,d_AD,True,True,False,Sure different,1,3.141592653589793,575.0,3119.0,8.045267716607803,2022-06-08 18:16:03
374,Main,4,0,7,Letter designer,True,i_AD,i_BD,True,False,False,Sure different,1,3.141592653589793,500.0,3040.0,8.019612794400267,2022-06-08 18:16:03
375,Main,4,0,8,Letter designer,True,d_AD,d_BD,True,False,False,Sure different,1,3.141592653589793,425.0,3088.0,8.035278911144667,2022-06-08 18:16:03
376,Main,4,0,9,Letter designer,True,u_AB,u_AD,True,False,True,Sure same,1,3.141592653589793,350.0,4224.0,8.348537825386098,2022-06-08 18:16:03
377,Main,4,0,10,Letter designer,True,d_AD,d_AB,True,False,True,Sure same,1,3.141592653589793,275.0,2816.0,7.943072717277933,2022-06-08 18:16:03
378,Main,4,0,11,Letter designer,True,u_AD,u_BC,True,True,False,Sure different,1,3.141592653589793,200.0,2896.0,7.971085753505607,2022-06-08 18:16:03
379,Main,4,0,12,Letter designer,True,u_AA,u_AA,False,True,True,Sure same,1,3.141592653589793,200.0,2792.0,7.934513463882263,2022-06-08 18:16:03
380,Main,4,0,13,Letter designer,True,i_AD,i_BC,True,True,False,Sure different,1,3.141592653589793,275.0,2728.0,7.911324018963353,2022-06-08 18:16:03
381,Main,4,0,14,Letter designer,True,i_AD,i_AB,True,False,True,Sure same,1,3.141592653589793,350.0,2904.0,7.973844375944687,2022-06-08 18:16:03
382,Main,4,0,15,Letter designer,True,u_AD,u_AD,True,True,True,Sure same,1,3.141592653589793,425.0,2904.0,7.973844375944687,2022-06-08 18:16:03
383,Main,4,0,16,Letter designer,True,u_AA,u_DD,False,True,False,Sure different,1,3.141592653589793,500.0,3360.0,8.11969625295725,2022-06-08 18:16:03
384,Main,4,0,17,Letter designer,True,d_AD,d_AD,True,True,True,Sure same,1,3.141592653589793,575.0,3192.0,8.068402958569699,2022-06-08 18:16:03
385,Main,4,0,18,Letter designer,True,i_AA,i_AA,False,True,True,Sure same,1,3.141592653589793,650.0,3473.0,8.152774052744075,2022-06-08 18:16:03
386,Main,4,1,1,Letter designer,True,p_AB,p_AD,True,False,True,Sure same,1,3.141592653589793,150.0,4950.0,8.507142855562735,2022-06-08 18:16:03
387,Main,4,1,2,Letter designer,True,j_AD,j_BC,True,True,False,Sure different,1,3.141592653589793,150.0,2559.0,7.847371836159788,2022-06-08 18:16:03
388,Main,4,1,3,Letter designer,True,c_AD,c_BD,True,False,False,Probably different,1,3.141592653589793,150.0,4192.0,8.340933226000878,2022-06-08 18:16:03
389,Main,4,1,4,Letter designer,True,c_AD,c_AB,True,False,True,Probably same,1,3.141592653589793,150.0,3337.0,8.112827478751374,2022-06-08 18:16:03
390,Main,4,1,5,Letter designer,True,a_AD,a_BD,True,False,False,Sure same,0,0.0,150.0,3016.0,8.011686729127847,2022-06-08 18:16:03
391,Main,4,1,6,Letter designer,True,h_AD,h_BC,True,True,False,Sure different,1,3.141592653589793,150.0,2679.0,7.893198869544609,2022-06-08 18:16:03
392,Main,4,1,7,Letter designer,True,t_AD,t_AD,True,True,True,Probably different,0,0.0,150.0,4032.0,8.302017809751204,2022-06-08 18:16:03
393,Main,4,1,8,Letter designer,True,a_BC,a_AD,True,True,False,Sure same,0,0.0,150.0,2688.0,7.89655270164304,2022-06-08 18:16:03
394,Main,4,1,9,Letter designer,True,n_AD,n_BD,True,False,False,Sure different,1,3.141592653589793,150.0,2664.0,7.88758403166028,2022-06-08 18:16:03
395,Main,4,1,10,Letter designer,True,z_AD,z_AD,True,True,True,Sure same,1,3.141592653589793,150.0,2585.0,7.85748078694253,2022-06-08 18:16:03
396,Main,4,1,11,Letter designer,True,p_BC,p_AD,True,True,False,Probably different,1,3.141592653589793,150.0,3047.0,8.021912778985708,2022-06-08 18:16:03
397,Main,4,1,12,Letter designer,True,t_AD,t_BD,True,False,False,Probably different,1,3.141592653589793,150.0,4808.0,8.478036476215044,2022-06-08 18:16:03
398,Main,4,1,13,Letter designer,True,t_DD,t_AA,False,True,False,Sure different,1,3.141592653589793,150.0,2600.0,7.8632667240095735,2022-06-08 18:16:03
399,Main,4,1,14,Letter designer,True,r_AD,r_BC,True,True,False,Sure different,1,3.141592653589793,150.0,3056.0,8.024862150286411,2022-06-08 18:16:03
400,Main,4,1,15,Letter designer,True,t_AD,t_BC,True,True,False,Probably different,1,3.141592653589793,150.0,3024.0,8.014335737299424,2022-06-08 18:16:03
401,Main,4,1,16,Letter designer,True,h_AA,h_AA,False,True,True,Sure same,1,3.141592653589793,150.0,2696.0,7.899524472032198,2022-06-08 18:16:03
402,Main,4,1,17,Letter designer,True,e_AD,e_BD,True,False,False,Probably same,0,0.0,150.0,3416.0,8.13622555490846,2022-06-08 18:16:03
403,Main,4,1,18,Letter designer,True,c_AA,c_AA,False,True,True,Probably different,0,0.0,150.0,3904.0,8.269756947532983,2022-06-08 18:16:03
404,Main,4,1,19,Letter designer,True,a_AA,a_AA,False,True,True,Sure same,1,3.141592653589793,150.0,5128.0,8.542470998600505,2022-06-08 18:16:03
405,Main,4,1,20,Letter designer,True,b_AD,b_AB,True,False,True,Probably different,0,0.0,150.0,3856.0,8.257385655730436,2022-06-08 18:16:03
406,Main,4,1,21,Letter designer,True,z_DD,z_AA,False,True,False,Sure different,1,3.141592653589793,150.0,2600.0,7.8632667240095735,2022-06-08 18:16:03
407,Main,4,1,22,Letter designer,True,z_AD,z_BC,True,True,False,Sure different,1,3.141592653589793,150.0,2656.0,7.884576510596324,2022-06-08 18:16:03
408,Main,4,1,23,Letter designer,True,j_BD,j_AD,True,False,False,Sure different,1,3.141592653589793,150.0,2728.0,7.911324018963353,2022-06-08 18:16:03
409,Main,4,1,24,Letter designer,True,b_AD,b_BD,True,False,False,Sure different,1,3.141592653589793,150.0,2632.0,7.875499292445208,2022-06-08 18:16:03
410,Main,4,1,25,Letter designer,True,t_AA,t_AA,False,True,True,Probably different,0,0.0,150.0,2944.0,7.987524479848767,2022-06-08 18:16:03
411,Main,4,1,26,Letter designer,True,b_DD,b_AA,False,True,False,Sure different,1,3.141592653589793,150.0,2407.0,7.786136437783072,2022-06-08 18:16:03
412,Main,4,1,27,Letter designer,True,q_AB,q_AD,True,False,True,Probably different,0,0.0,150.0,2905.0,7.974188669286011,2022-06-08 18:16:03
413,Main,4,1,28,Letter designer,True,z_AB,z_AD,True,False,True,Sure same,1,3.141592653589793,150.0,3576.0,8.182000136293405,2022-06-08 18:16:03
414,Main,4,1,29,Letter designer,True,e_DD,e_AA,False,True,False,Probably same,0,0.0,150.0,6208.0,8.733594061863055,2022-06-08 18:16:03
415,Main,4,1,30,Letter designer,True,c_AD,c_AD,True,True,True,Probably same,1,3.141592653589793,150.0,3728.0,8.223627175805483,2022-06-08 18:16:03
416,Main,4,1,31,Letter designer,True,b_BC,b_AD,True,True,False,Sure different,1,3.141592653589793,150.0,3688.0,8.212839584676484,2022-06-08 18:16:03
417,Main,4,1,32,Letter designer,True,e_AD,e_AB,True,False,True,Probably same,1,3.141592653589793,150.0,4208.0,8.344742754417545,2022-06-08 18:16:03
418,Main,4,1,33,Letter designer,True,h_AD,h_AB,True,False,True,Sure same,1,3.141592653589793,150.0,3384.0,8.126813720726114,2022-06-08 18:16:03
419,Main,4,1,34,Letter designer,True,q_BC,q_AD,True,True,False,Probably different,1,3.141592653589793,150.0,4616.0,8.437283808187935,2022-06-08 18:16:03
420,Main,4,1,35,Letter designer,True,a_AD,a_AB,True,False,True,Sure same,1,3.141592653589793,150.0,3921.0,8.27410200229233,2022-06-08 18:16:03
421,Main,4,1,36,Letter designer,True,p_AD,p_BD,True,False,False,Sure different,1,3.141592653589793,150.0,2839.0,7.951207156472972,2022-06-08 18:16:03
422,Main,4,1,37,Letter designer,True,h_DD,h_AA,False,True,False,Sure different,1,3.141592653589793,150.0,2536.0,7.8383433155571165,2022-06-08 18:16:03
423,Main,4,1,38,Letter designer,True,n_AD,n_AD,True,True,True,Probably same,1,3.141592653589793,150.0,3848.0,8.255308811785596,2022-06-08 18:16:03
424,Main,4,1,39,Letter designer,True,q_AA,q_AA,False,True,True,Probably different,0,0.0,150.0,3632.0,8.197538739721184,2022-06-08 18:16:03
425,Main,4,1,40,Letter designer,True,r_BD,r_AD,True,False,False,Probably same,0,0.0,150.0,3272.0,8.093156697722637,2022-06-08 18:16:03
426,Main,4,1,41,Letter designer,True,a_AD,a_AD,True,True,True,Probably same,1,3.141592653589793,150.0,2880.0,7.965545573129992,2022-06-08 18:16:03
427,Main,4,1,42,Letter designer,True,q_DD,q_AA,False,True,False,Sure different,1,3.141592653589793,150.0,2560.0,7.847762537473608,2022-06-08 18:16:03
428,Main,4,1,43,Letter designer,True,n_AD,n_BC,True,True,False,Sure different,1,3.141592653589793,150.0,2800.0,7.937374696163295,2022-06-08 18:16:03
429,Main,4,1,44,Letter designer,True,c_BC,c_AD,True,True,False,Probably different,1,3.141592653589793,150.0,3256.0,8.08825472712243,2022-06-08 18:16:03
430,Main,4,1,45,Letter designer,True,j_AD,j_AD,True,True,True,Sure same,1,3.141592653589793,150.0,2912.0,7.976595409316577,2022-06-08 18:16:03
431,Main,4,1,46,Letter designer,True,q_AD,q_AD,True,True,True,Probably different,0,0.0,150.0,4560.0,8.425077902508432,2022-06-08 18:16:03
432,Main,4,1,47,Letter designer,True,q_AD,q_BD,True,False,False,Sure different,1,3.141592653589793,150.0,3688.0,8.212839584676484,2022-06-08 18:16:03
433,Main,4,1,48,Letter designer,True,j_AA,j_AA,False,True,True,Sure same,1,3.141592653589793,150.0,2944.0,7.987524479848767,2022-06-08 18:16:03
434,Main,4,1,49,Letter designer,True,r_AA,r_AA,False,True,True,Sure same,1,3.141592653589793,150.0,2904.0,7.973844375944687,2022-06-08 18:16:03
435,Main,4,1,50,Letter designer,True,z_AA,z_AA,False,True,True,Sure same,1,3.141592653589793,150.0,2617.0,7.869783902530146,2022-06-08 18:16:03
436,Main,4,1,51,Letter designer,True,h_AD,h_AD,True,True,True,Probably same,1,3.141592653589793,150.0,3072.0,8.030084094267563,2022-06-08 18:16:03
437,Main,4,1,52,Letter designer,True,j_AB,j_AD,True,False,True,Probably same,1,3.141592653589793,150.0,4631.0,8.440528106480752,2022-06-08 18:16:03
438,Main,4,1,53,Letter designer,True,n_AA,n_AA,False,True,True,Probably same,1,3.141592653589793,150.0,4408.0,8.391176350832751,2022-06-08 18:16:03
439,Main,4,1,54,Letter designer,True,r_AD,r_AD,True,True,True,Probably same,1,3.141592653589793,150.0,3392.0,8.129174996911793,2022-06-08 18:16:03
440,Main,4,1,55,Letter designer,True,t_AB,t_AD,True,False,True,Probably same,1,3.141592653589793,150.0,2784.0,7.931644021454311,2022-06-08 18:16:03
441,Main,4,1,56,Letter designer,True,b_AD,b_AD,True,True,True,Sure same,1,3.141592653589793,150.0,2752.0,7.920083199053234,2022-06-08 18:16:03
442,Main,4,1,57,Letter designer,True,r_AB,r_AD,True,False,True,Sure same,1,3.141592653589793,150.0,2689.0,7.896924656268864,2022-06-08 18:16:03
443,Main,4,1,58,Letter designer,True,b_AA,b_AA,False,True,True,Sure same,1,3.141592653589793,150.0,2647.0,7.881182202227102,2022-06-08 18:16:03
444,Main,4,1,59,Letter designer,True,a_AA,a_DD,False,True,False,Sure different,1,3.141592653589793,150.0,2664.0,7.88758403166028,2022-06-08 18:16:03
445,Main,4,1,60,Letter designer,True,p_AA,p_AA,False,True,True,Probably different,0,0.0,150.0,3809.0,8.245121966478605,2022-06-08 18:16:03
446,Main,4,1,61,Letter designer,True,e_AD,e_AD,True,True,True,Probably same,1,3.141592653589793,150.0,3896.0,8.267705664762426,2022-06-08 18:16:03
447,Main,4,1,62,Letter designer,True,p_DD,p_AA,False,True,False,Sure different,1,3.141592653589793,150.0,2767.0,7.925518979786926,2022-06-08 18:16:03
448,Main,4,1,63,Letter designer,True,p_AD,p_AD,True,True,True,Probably different,0,0.0,150.0,3584.0,8.18423477409482,2022-06-08 18:16:03
449,Main,4,1,64,Letter designer,True,j_DD,j_AA,False,True,False,Sure different,1,3.141592653589793,150.0,2464.0,7.80954132465341,2022-06-08 18:16:03
450,Main,4,1,65,Letter designer,True,n_DD,n_AA,False,True,False,Sure different,1,3.141592653589793,150.0,2464.0,7.80954132465341,2022-06-08 18:16:03
451,Main,4,1,66,Letter designer,True,z_BD,z_AD,True,False,False,Sure different,1,3.141592653589793,150.0,2489.0,7.819636302367592,2022-06-08 18:16:03
452,Main,4,1,67,Letter designer,True,h_AD,h_BD,True,False,False,Sure different,1,3.141592653589793,150.0,2512.0,7.828834527588089,2022-06-08 18:16:03
453,Main,4,1,68,Letter designer,True,n_AD,n_AB,True,False,True,Probably different,0,0.0,150.0,2791.0,7.934155233536322,2022-06-08 18:16:03
454,Main,4,1,69,Letter designer,True,e_AA,e_AA,False,True,True,Sure same,1,3.141592653589793,150.0,3376.0,8.124446855715847,2022-06-08 18:16:03
455,Main,4,1,70,Letter designer,True,c_AA,c_DD,False,True,False,Sure different,1,3.141592653589793,150.0,2528.0,7.8351837552667485,2022-06-08 18:16:03
456,Main,4,1,71,Letter designer,True,e_BC,e_AD,True,True,False,Sure same,0,0.0,150.0,3016.0,8.011686729127847,2022-06-08 18:16:03
457,Main,4,1,72,Letter designer,True,r_DD,r_AA,False,True,False,Sure different,1,3.141592653589793,150.0,2617.0,7.869783902530146,2022-06-08 18:16:03
458,Main,4,0,19,Letter designer,True,u_AD,u_BD,True,False,False,Sure different,1,3.141592653589793,725.0,3231.0,8.080546965824498,2022-06-08 18:16:03
459,Main,4,0,20,Letter designer,True,i_AD,i_AD,True,True,True,Sure same,1,3.141592653589793,800.0,4416.0,8.392989587956931,2022-06-08 18:16:03
460,Main,5,0,1,Graphic designer,True,d_AD,d_BC,True,True,False,Sure different,1,3.141592653589793,800.0,7680.0,8.946374826141717,2022-06-07 22:30:15
461,Main,5,0,2,Graphic designer,True,u_DD,u_AA,False,True,False,Sure different,1,3.141592653589793,800.0,4359.0,8.379997952238393,2022-06-07 22:30:15
462,Main,5,0,3,Graphic designer,True,d_AA,d_DD,False,True,False,Sure different,1,3.141592653589793,800.0,4899.0,8.496786381638575,2022-06-07 22:30:15
463,Main,5,0,4,Graphic designer,True,d_AA,d_AA,False,True,True,Probably same,1,3.141592653589793,725.0,6534.0,8.784774592161016,2022-06-07 22:30:15
464,Main,5,0,5,Graphic designer,True,i_AA,i_DD,False,True,False,Sure different,1,3.141592653589793,650.0,3793.0,8.2409125416889,2022-06-07 22:30:15
465,Main,5,0,6,Graphic designer,True,d_AD,d_BC,True,True,False,Probably different,1,3.141592653589793,575.0,5815.0,8.668196064952765,2022-06-07 22:30:15
466,Main,5,0,7,Graphic designer,True,i_AD,i_BD,True,False,False,Sure different,1,3.141592653589793,500.0,3705.0,8.217438537730187,2022-06-07 22:30:15
467,Main,5,0,8,Graphic designer,True,d_BD,d_AD,True,False,False,Sure different,1,3.141592653589793,425.0,3795.0,8.24143968982973,2022-06-07 22:30:15
468,Main,5,0,9,Graphic designer,True,u_AD,u_AB,True,False,True,Probably same,1,3.141592653589793,350.0,4635.0,8.441391477999955,2022-06-07 22:30:15
469,Main,5,0,10,Graphic designer,True,d_AD,d_AB,True,False,True,Sure same,1,3.141592653589793,275.0,3633.0,8.197814032221203,2022-06-07 22:30:15
470,Main,5,0,11,Graphic designer,True,u_BC,u_AD,True,True,False,Sure different,1,3.141592653589793,200.0,3337.0,8.112827478751374,2022-06-07 22:30:15
471,Main,5,0,12,Graphic designer,True,u_AA,u_AA,False,True,True,Probably different,0,0.0,200.0,5335.0,8.582044163735853,2022-06-07 22:30:15
472,Main,5,0,13,Graphic designer,True,i_AD,i_BC,True,True,False,Sure different,1,3.141592653589793,275.0,3229.0,8.079927770758275,2022-06-07 22:30:15
473,Main,5,0,14,Graphic designer,True,i_AD,i_AB,True,False,True,Sure same,1,3.141592653589793,350.0,4120.0,8.323608442343572,2022-06-07 22:30:15
474,Main,5,0,15,Graphic designer,True,u_AD,u_AD,True,True,True,Probably same,1,3.141592653589793,425.0,3961.0,8.284251797621916,2022-06-07 22:30:15
475,Main,5,0,16,Graphic designer,True,u_DD,u_AA,False,True,False,Sure different,1,3.141592653589793,500.0,3639.0,8.19946419761216,2022-06-07 22:30:15
476,Main,5,0,17,Graphic designer,True,d_AD,d_AD,True,True,True,Probably same,1,3.141592653589793,575.0,4366.0,8.38160253710989,2022-06-07 22:30:15
477,Main,5,0,18,Graphic designer,True,i_AA,i_AA,False,True,True,Sure same,1,3.141592653589793,650.0,4208.0,8.344742754417545,2022-06-07 22:30:15
478,Main,5,1,1,Graphic designer,True,p_AA,p_DD,False,True,False,Sure different,1,3.141592653589793,188.9,5507.0,8.613775289262481,2022-06-07 22:30:15
479,Main,5,1,2,Graphic designer,True,q_AD,q_AD,True,True,True,Probably same,1,3.141592653589793,188.9,3847.0,8.255048902752295,2022-06-07 22:30:15
480,Main,5,1,3,Graphic designer,True,t_AA,t_AA,False,True,True,Probably different,0,0.0,188.9,3910.0,8.271292652979412,2022-06-07 22:30:15
481,Main,5,1,4,Graphic designer,True,c_AD,c_BD,True,False,False,Sure different,1,3.141592653589793,188.9,3399.0,8.131236549696116,2022-06-07 22:30:15
482,Main,5,1,5,Graphic designer,True,c_DD,c_AA,False,True,False,Sure different,1,3.141592653589793,188.9,4136.0,8.327484416188264,2022-06-07 22:30:15
483,Main,5,1,6,Graphic designer,True,b_AD,b_BC,True,True,False,Sure different,1,3.141592653589793,188.9,3383.0,8.12651816878071,2022-06-07 22:30:15
484,Main,5,1,7,Graphic designer,True,z_AD,z_AD,True,True,True,Probably same,1,3.141592653589793,188.9,3810.0,8.245384468120747,2022-06-07 22:30:15
485,Main,5,1,8,Graphic designer,True,n_BC,n_AD,True,True,False,Sure different,1,3.141592653589793,188.9,3100.0,8.039157390473237,2022-06-07 22:30:15
486,Main,5,1,9,Graphic designer,True,t_AD,t_BC,True,True,False,Sure different,1,3.141592653589793,188.9,3247.0,8.085486772102845,2022-06-07 22:30:15
487,Main,5,1,10,Graphic designer,True,p_AD,p_AB,True,False,True,Probably different,0,0.0,188.9,4329.0,8.37309184744198,2022-06-07 22:30:15
488,Main,5,1,11,Graphic designer,True,t_AD,t_AB,True,False,True,Probably same,1,3.141592653589793,188.9,3851.0,8.25608813381491,2022-06-07 22:30:15
489,Main,5,1,12,Graphic designer,True,p_BC,p_AD,True,True,False,Sure different,1,3.141592653589793,188.9,3132.0,8.049427057110695,2022-06-07 22:30:15
490,Main,5,1,13,Graphic designer,True,n_AA,n_AA,False,True,True,Probably same,1,3.141592653589793,188.9,4736.0,8.462948176563842,2022-06-07 22:30:15
491,Main,5,1,14,Graphic designer,True,a_AB,a_AD,True,False,True,Probably different,0,0.0,188.9,5779.0,8.661985936317778,2022-06-07 22:30:15
492,Main,5,1,15,Graphic designer,True,r_AA,r_DD,False,True,False,Sure different,1,3.141592653589793,188.9,3316.0,8.106514516255185,2022-06-07 22:30:15
493,Main,5,1,16,Graphic designer,True,a_AD,a_AD,True,True,True,Probably same,1,3.141592653589793,188.9,3659.0,8.204945165019208,2022-06-07 22:30:15
494,Main,5,1,17,Graphic designer,True,z_AA,z_AA,False,True,True,Probably different,0,0.0,188.9,3738.0,8.226305988015508,2022-06-07 22:30:15
495,Main,5,1,18,Graphic designer,True,h_AA,h_AA,False,True,True,Probably different,0,0.0,188.9,3347.0,8.115819701211327,2022-06-07 22:30:15
496,Main,5,1,19,Graphic designer,True,n_AA,n_DD,False,True,False,Sure different,1,3.141592653589793,188.9,3062.0,8.026823576217629,2022-06-07 22:30:15
497,Main,5,1,20,Graphic designer,True,t_BD,t_AD,True,False,False,Sure different,1,3.141592653589793,188.9,3038.0,8.018954683155718,2022-06-07 22:30:15
498,Main,5,1,21,Graphic designer,True,e_AA,e_AA,False,True,True,Probably different,0,0.0,188.9,4413.0,8.392310009269547,2022-06-07 22:30:15
499,Main,5,1,22,Graphic designer,True,n_AD,n_AD,True,True,True,Probably same,1,3.141592653589793,188.9,3995.0,8.292798858200374,2022-06-07 22:30:15
500,Main,5,1,23,Graphic designer,True,b_AD,b_AB,True,False,True,Probably same,1,3.141592653589793,188.9,3531.0,8.169336395928386,2022-06-07 22:30:15
501,Main,5,1,24,Graphic designer,True,r_AD,r_BD,True,False,False,Sure different,1,3.141592653589793,188.9,2999.0,8.00603417874901,2022-06-07 22:30:15
502,Main,5,1,25,Graphic designer,True,a_BC,a_AD,True,True,False,Probably same,0,0.0,188.9,4552.0,8.423321975806166,2022-06-07 22:30:15
503,Main,5,1,26,Graphic designer,True,h_AD,h_AD,True,True,True,Probably same,1,3.141592653589793,188.9,3195.0,8.069342366811636,2022-06-07 22:30:15
504,Main,5,1,27,Graphic designer,True,c_AA,c_AA,False,True,True,Probably different,0,0.0,188.9,3615.0,8.192847134592865,2022-06-07 22:30:15
505,Main,5,1,28,Graphic designer,True,c_AD,c_AD,True,True,True,Probably same,1,3.141592653589793,188.9,3487.0,8.156797046675651,2022-06-07 22:30:15
506,Main,5,1,29,Graphic designer,True,p_AA,p_AA,False,True,True,Probably different,0,0.0,188.9,3832.0,8.251142139090751,2022-06-07 22:30:15
507,Main,5,1,30,Graphic designer,True,z_AB,z_AD,True,False,True,Sure different,0,0.0,188.9,3493.0,8.158516244806831,2022-06-07 22:30:15
508,Main,5,1,31,Graphic designer,True,b_AD,b_AD,True,True,True,Probably same,1,3.141592653589793,188.9,3466.0,8.150756470275551,2022-06-07 22:30:15
509,Main,5,1,32,Graphic designer,True,a_DD,a_AA,False,True,False,Sure different,1,3.141592653589793,188.9,3183.0,8.065579427282092,2022-06-07 22:30:15
510,Main,5,1,33,Graphic designer,True,z_BD,z_AD,True,False,False,Sure different,1,3.141592653589793,188.9,2951.0,7.989899374942939,2022-06-07 22:30:15
511,Main,5,1,34,Graphic designer,True,h_DD,h_AA,False,True,False,Sure different,1,3.141592653589793,188.9,2962.0,7.993619994827744,2022-06-07 22:30:15
512,Main,5,1,35,Graphic designer,True,c_AD,c_BC,True,True,False,Sure different,1,3.141592653589793,188.9,3333.0,8.11162807830774,2022-06-07 22:30:15
513,Main,5,1,36,Graphic designer,True,p_AD,p_AD,True,True,True,Sure different,0,0.0,188.9,3487.0,8.156797046675651,2022-06-07 22:30:15
514,Main,5,1,37,Graphic designer,True,j_AA,j_AA,False,True,True,Probably different,0,0.0,188.9,4146.0,8.329899292995725,2022-06-07 22:30:15
515,Main,5,1,38,Graphic designer,True,n_AD,n_AB,True,False,True,Sure different,0,0.0,188.9,3635.0,8.19836438996762,2022-06-07 22:30:15
516,Main,5,1,39,Graphic designer,True,b_BD,b_AD,True,False,False,Sure different,1,3.141592653589793,188.9,2994.0,8.004365564979574,2022-06-07 22:30:15
517,Main,5,1,40,Graphic designer,True,r_AB,r_AD,True,False,True,Probably same,1,3.141592653589793,188.9,4164.0,8.33423142973486,2022-06-07 22:30:15
518,Main,5,1,41,Graphic designer,True,e_AD,e_AD,True,True,True,Probably different,0,0.0,188.9,3552.0,8.17526610411206,2022-06-07 22:30:15
519,Main,5,1,42,Graphic designer,True,r_AD,r_AD,True,True,True,Probably same,1,3.141592653589793,188.9,4029.0,8.301273485191347,2022-06-07 22:30:15
520,Main,5,1,43,Graphic designer,True,t_AD,t_AD,True,True,True,Sure same,1,3.141592653589793,188.9,3914.0,8.272315147956022,2022-06-07 22:30:15
521,Main,5,1,44,Graphic designer,True,z_BC,z_AD,True,True,False,Sure different,1,3.141592653589793,188.9,2902.0,7.973155433444133,2022-06-07 22:30:15
522,Main,5,1,45,Graphic designer,True,j_AD,j_AB,True,False,True,Probably different,0,0.0,188.9,3811.0,8.24564690087386,2022-06-07 22:30:15
523,Main,5,1,46,Graphic designer,True,j_AD,j_BD,True,False,False,Sure different,1,3.141592653589793,188.9,3250.0,8.086410275323782,2022-06-07 22:30:15
524,Main,5,1,47,Graphic designer,True,c_AD,c_AB,True,False,True,Probably same,1,3.141592653589793,188.9,3288.0,8.098034756176071,2022-06-07 22:30:15
525,Main,5,1,48,Graphic designer,True,q_AA,q_DD,False,True,False,Sure different,1,3.141592653589793,188.9,3014.0,8.01102337918644,2022-06-07 22:30:15
526,Main,5,1,49,Graphic designer,True,n_BD,n_AD,True,False,False,Sure different,1,3.141592653589793,188.9,2746.0,7.917900586327916,2022-06-07 22:30:15
527,Main,5,1,50,Graphic designer,True,e_BC,e_AD,True,True,False,Sure same,0,0.0,188.9,3515.0,8.164794804244766,2022-06-07 22:30:15
528,Main,5,1,51,Graphic designer,True,t_AA,t_DD,False,True,False,Sure different,1,3.141592653589793,188.9,2970.0,7.996317231796746,2022-06-07 22:30:15
529,Main,5,1,52,Graphic designer,True,r_AA,r_AA,False,True,True,Probably same,1,3.141592653589793,188.9,3208.0,8.073402968986406,2022-06-07 22:30:15
530,Main,5,1,53,Graphic designer,True,a_BD,a_AD,True,False,False,Probably same,0,0.0,188.9,3373.0,8.12355783506165,2022-06-07 22:30:15
531,Main,5,1,54,Graphic designer,True,j_AA,j_DD,False,True,False,Sure different,1,3.141592653589793,188.9,2934.0,7.984121958702927,2022-06-07 22:30:15
532,Main,5,1,55,Graphic designer,True,e_BD,e_AD,True,False,False,Probably same,0,0.0,188.9,3498.0,8.159946655578548,2022-06-07 22:30:15
533,Main,5,1,56,Graphic designer,True,r_BC,r_AD,True,True,False,Sure different,1,3.141592653589793,188.9,2969.0,7.99598047476376,2022-06-07 22:30:15
534,Main,5,1,57,Graphic designer,True,e_AD,e_AB,True,False,True,Probably same,1,3.141592653589793,188.9,3278.0,8.094988759303774,2022-06-07 22:30:15
535,Main,5,1,58,Graphic designer,True,e_DD,e_AA,False,True,False,Sure different,1,3.141592653589793,188.9,2748.0,7.91862865334224,2022-06-07 22:30:15
536,Main,5,1,59,Graphic designer,True,q_BC,q_AD,True,True,False,Sure different,1,3.141592653589793,188.9,3449.0,8.145839612936841,2022-06-07 22:30:15
537,Main,5,1,60,Graphic designer,True,q_AA,q_AA,False,True,True,Probably same,1,3.141592653589793,188.9,3157.0,8.057377488557991,2022-06-07 22:30:15
538,Main,5,1,61,Graphic designer,True,h_BD,h_AD,True,False,False,Sure different,1,3.141592653589793,188.9,3705.0,8.217438537730187,2022-06-07 22:30:15
539,Main,5,1,62,Graphic designer,True,a_AA,a_AA,False,True,True,Probably same,1,3.141592653589793,188.9,4118.0,8.323122887587735,2022-06-07 22:30:15
540,Main,5,1,63,Graphic designer,True,q_AB,q_AD,True,False,True,Sure different,0,0.0,188.9,3448.0,8.145549631783584,2022-06-07 22:30:15
541,Main,5,1,64,Graphic designer,True,h_AD,h_BC,True,True,False,Sure different,1,3.141592653589793,188.9,3051.0,8.02322468471667,2022-06-07 22:30:15
542,Main,5,1,65,Graphic designer,True,p_AD,p_BD,True,False,False,Sure different,1,3.141592653589793,188.9,3145.0,8.05356916913454,2022-06-07 22:30:15
543,Main,5,1,66,Graphic designer,True,j_AD,j_BC,True,True,False,Sure different,1,3.141592653589793,188.9,3082.0,8.033334015880062,2022-06-07 22:30:15
544,Main,5,1,67,Graphic designer,True,z_AA,z_DD,False,True,False,Sure different,1,3.141592653589793,188.9,2883.0,7.9665866976384025,2022-06-07 22:30:15
545,Main,5,1,68,Graphic designer,True,q_BD,q_AD,True,False,False,Probably different,1,3.141592653589793,188.9,3970.0,8.286521373681236,2022-06-07 22:30:15
546,Main,5,1,69,Graphic designer,True,h_AB,h_AD,True,False,True,Sure different,0,0.0,188.9,2994.0,8.004365564979574,2022-06-07 22:30:15
547,Main,5,1,70,Graphic designer,True,b_AA,b_AA,False,True,True,Sure different,0,0.0,188.9,2982.0,8.000349495324684,2022-06-07 22:30:15
548,Main,5,1,71,Graphic designer,True,b_AA,b_DD,False,True,False,Sure different,1,3.141592653589793,188.9,2881.0,7.9658927350845286,2022-06-07 22:30:15
549,Main,5,1,72,Graphic designer,True,j_AD,j_AD,True,True,True,Sure different,0,0.0,188.9,3235.0,8.081784206935001,2022-06-07 22:30:15
550,Main,5,0,19,Graphic designer,True,u_BD,u_AD,True,False,False,Sure different,1,3.141592653589793,725.0,3835.0,8.251924713801357,2022-06-07 22:30:15
551,Main,5,0,20,Graphic designer,True,i_AD,i_AD,True,True,True,Sure same,1,3.141592653589793,800.0,4332.0,8.37378460812088,2022-06-07 22:30:15
552,Main,6,0,1,Letter designer,True,d_BC,d_AD,True,True,False,Sure different,1,3.141592653589793,800.0,7844.0,8.967504187316237,2022-06-07 16:32:24
553,Main,6,0,2,Letter designer,True,u_AA,u_DD,False,True,False,Sure different,1,3.141592653589793,800.0,4469.0,8.404919948933452,2022-06-07 16:32:24
554,Main,6,0,3,Letter designer,True,d_DD,d_AA,False,True,False,Sure different,1,3.141592653589793,800.0,4339.0,8.37539918579835,2022-06-07 16:32:24
555,Main,6,0,4,Letter designer,True,d_AA,d_AA,False,True,True,Probably same,1,3.141592653589793,725.0,4901.0,8.497194544909547,2022-06-07 16:32:24
556,Main,6,0,5,Letter designer,True,i_DD,i_AA,False,True,False,Sure different,1,3.141592653589793,650.0,3713.0,8.21959545417708,2022-06-07 16:32:24
557,Main,6,0,6,Letter designer,True,d_AD,d_BC,True,True,False,Sure different,1,3.141592653589793,575.0,4193.0,8.341171747170762,2022-06-07 16:32:24
558,Main,6,0,7,Letter designer,True,i_AD,i_BD,True,False,False,Sure different,1,3.141592653589793,500.0,3843.0,8.254008590564844,2022-06-07 16:32:24
559,Main,6,0,8,Letter designer,True,d_AD,d_BD,True,False,False,Sure different,1,3.141592653589793,425.0,3787.0,8.239329427901795,2022-06-07 16:32:24
560,Main,6,0,9,Letter designer,True,u_AD,u_AB,True,False,True,Probably same,1,3.141592653589793,350.0,4500.0,8.411832675758411,2022-06-07 16:32:24
561,Main,6,0,10,Letter designer,True,d_AD,d_AB,True,False,True,Probably same,1,3.141592653589793,275.0,6210.0,8.733916174927524,2022-06-07 16:32:24
562,Main,6,0,11,Letter designer,True,u_BC,u_AD,True,True,False,Sure different,1,3.141592653589793,200.0,3232.0,8.080856419640986,2022-06-07 16:32:24
563,Main,6,0,12,Letter designer,True,u_AA,u_AA,False,True,True,Probably same,1,3.141592653589793,200.0,4332.0,8.37378460812088,2022-06-07 16:32:24
564,Main,6,0,13,Letter designer,True,i_BC,i_AD,True,True,False,Probably same,0,0.0,275.0,4113.0,8.321907968230423,2022-06-07 16:32:24
565,Main,6,0,14,Letter designer,True,i_AB,i_AD,True,False,True,Probably same,1,3.141592653589793,350.0,4151.0,8.33110454805304,2022-06-07 16:32:24
566,Main,6,0,15,Letter designer,True,u_AD,u_AD,True,True,True,Probably same,1,3.141592653589793,425.0,4028.0,8.301025253838453,2022-06-07 16:32:24
567,Main,6,0,16,Letter designer,True,u_AA,u_DD,False,True,False,Sure different,1,3.141592653589793,500.0,3954.0,8.282483003730562,2022-06-07 16:32:24
568,Main,6,0,17,Letter designer,True,d_AD,d_AD,True,True,True,Probably same,1,3.141592653589793,575.0,4046.0,8.305484017727691,2022-06-07 16:32:24
569,Main,6,0,18,Letter designer,True,i_AA,i_AA,False,True,True,Probably same,1,3.141592653589793,650.0,4223.0,8.348301054933943,2022-06-07 16:32:24
570,Main,6,1,1,Letter designer,True,q_AD,q_BC,True,True,False,Probably same,0,0.0,188.9,6875.0,8.835646922534773,2022-06-07 16:32:24
571,Main,6,1,2,Letter designer,True,b_AD,b_AB,True,False,True,Probably same,1,3.141592653589793,188.9,3489.0,8.157370441186774,2022-06-07 16:32:24
572,Main,6,1,3,Letter designer,True,t_AD,t_AB,True,False,True,Probably different,0,0.0,188.9,4307.0,8.36799688505411,2022-06-07 16:32:24
573,Main,6,1,4,Letter designer,True,j_AD,j_AD,True,True,True,Probably same,1,3.141592653589793,188.9,3601.0,8.188966863648876,2022-06-07 16:32:24
574,Main,6,1,5,Letter designer,True,z_BD,z_AD,True,False,False,Probably same,0,0.0,188.9,4196.0,8.341886969516187,2022-06-07 16:32:24
575,Main,6,1,6,Letter designer,True,z_DD,z_AA,False,True,False,Probably different,1,3.141592653589793,188.9,3795.0,8.24143968982973,2022-06-07 16:32:24
576,Main,6,1,7,Letter designer,True,n_AA,n_AA,False,True,True,Probably same,1,3.141592653589793,188.9,3652.0,8.20303024171486,2022-06-07 16:32:24
577,Main,6,1,8,Letter designer,True,e_AD,e_BD,True,False,False,Probably different,1,3.141592653589793,188.9,6239.0,8.738575192110787,2022-06-07 16:32:24
578,Main,6,1,9,Letter designer,True,a_AD,a_BC,True,True,False,Probably same,0,0.0,188.9,3700.0,8.216088098632316,2022-06-07 16:32:24
579,Main,6,1,10,Letter designer,True,e_AD,e_AD,True,True,True,Probably same,1,3.141592653589793,188.9,3580.0,8.183118079394745,2022-06-07 16:32:24
580,Main,6,1,11,Letter designer,True,e_AD,e_AB,True,False,True,Probably same,1,3.141592653589793,188.9,3509.0,8.163086375583216,2022-06-07 16:32:24
581,Main,6,1,12,Letter designer,True,j_AD,j_BC,True,True,False,Sure different,1,3.141592653589793,188.9,3325.0,8.109224953089955,2022-06-07 16:32:24
582,Main,6,1,13,Letter designer,True,q_BD,q_AD,True,False,False,Probably same,0,0.0,188.9,3548.0,8.17413934342947,2022-06-07 16:32:24
583,Main,6,1,14,Letter designer,True,b_AA,b_AA,False,True,True,Probably same,1,3.141592653589793,188.9,3452.0,8.146709052203319,2022-06-07 16:32:24
584,Main,6,1,15,Letter designer,True,p_BD,p_AD,True,False,False,Probably same,0,0.0,188.9,3718.0,8.220941168281389,2022-06-07 16:32:24
585,Main,6,1,16,Letter designer,True,n_AA,n_DD,False,True,False,Sure different,1,3.141592653589793,188.9,3534.0,8.170185652879642,2022-06-07 16:32:24
586,Main,6,1,17,Letter designer,True,q_AD,q_AD,True,True,True,Probably same,1,3.141592653589793,188.9,3563.0,8.178358165605836,2022-06-07 16:32:24
587,Main,6,1,18,Letter designer,True,e_AD,e_BC,True,True,False,Probably same,0,0.0,188.9,3336.0,8.112527763478637,2022-06-07 16:32:24
588,Main,6,1,19,Letter designer,True,h_AD,h_BD,True,False,False,Sure different,1,3.141592653589793,188.9,3198.0,8.0702808933939,2022-06-07 16:32:24
589,Main,6,1,20,Letter designer,True,e_AA,e_DD,False,True,False,Sure different,1,3.141592653589793,188.9,3408.0,8.133880887949207,2022-06-07 16:32:24
590,Main,6,1,21,Letter designer,True,t_DD,t_AA,False,True,False,Sure different,1,3.141592653589793,188.9,3232.0,8.080856419640986,2022-06-07 16:32:24
591,Main,6,1,22,Letter designer,True,h_AA,h_DD,False,True,False,Sure different,1,3.141592653589793,188.9,3175.0,8.063062911326792,2022-06-07 16:32:24
592,Main,6,1,23,Letter designer,True,r_BC,r_AD,True,True,False,Sure different,1,3.141592653589793,188.9,3125.0,8.047189562170502,2022-06-07 16:32:24
593,Main,6,1,24,Letter designer,True,n_BC,n_AD,True,True,False,Sure different,1,3.141592653589793,188.9,3294.0,8.099857910737585,2022-06-07 16:32:24
594,Main,6,1,25,Letter designer,True,c_AD,c_BC,True,True,False,Probably different,1,3.141592653589793,188.9,3664.0,8.20631072579402,2022-06-07 16:32:24
595,Main,6,1,26,Letter designer,True,r_AD,r_AB,True,False,True,Probably same,1,3.141592653589793,188.9,3633.0,8.197814032221203,2022-06-07 16:32:24
596,Main,6,1,27,Letter designer,True,b_AA,b_DD,False,True,False,Sure different,1,3.141592653589793,188.9,3217.0,8.076204527239026,2022-06-07 16:32:24
597,Main,6,1,28,Letter designer,True,r_AD,r_BD,True,False,False,Sure different,1,3.141592653589793,188.9,3275.0,8.094073148069352,2022-06-07 16:32:24
598,Main,6,1,29,Letter designer,True,a_AA,a_AA,False,True,True,Probably same,1,3.141592653589793,188.9,3409.0,8.134174272137903,2022-06-07 16:32:24
599,Main,6,1,30,Letter designer,True,t_BD,t_AD,True,False,False,Probably same,0,0.0,188.9,3240.0,8.083328608786376,2022-06-07 16:32:24
600,Main,6,1,31,Letter designer,True,t_AD,t_AD,True,True,True,Probably same,1,3.141592653589793,188.9,3508.0,8.162801353492073,2022-06-07 16:32:24
601,Main,6,1,32,Letter designer,True,p_DD,p_AA,False,True,False,Sure different,1,3.141592653589793,188.9,3249.0,8.0861025356691,2022-06-07 16:32:24
602,Main,6,1,33,Letter designer,True,c_AD,c_AD,True,True,True,Probably same,1,3.141592653589793,188.9,3452.0,8.146709052203319,2022-06-07 16:32:24
603,Main,6,1,34,Letter designer,True,n_AD,n_AD,True,True,True,Probably same,1,3.141592653589793,188.9,4151.0,8.33110454805304,2022-06-07 16:32:24
604,Main,6,1,35,Letter designer,True,c_DD,c_AA,False,True,False,Sure different,1,3.141592653589793,188.9,3189.0,8.067462667010057,2022-06-07 16:32:24
605,Main,6,1,36,Letter designer,True,c_AB,c_AD,True,False,True,Probably different,0,0.0,188.9,3825.0,8.249313746260636,2022-06-07 16:32:24
606,Main,6,1,37,Letter designer,True,h_AA,h_AA,False,True,True,Probably same,1,3.141592653589793,188.9,3680.0,8.210668031162976,2022-06-07 16:32:24
607,Main,6,1,38,Letter designer,True,r_AA,r_AA,False,True,True,Probably same,1,3.141592653589793,188.9,3308.0,8.104099056143582,2022-06-07 16:32:24
608,Main,6,1,39,Letter designer,True,e_AA,e_AA,False,True,True,Probably same,1,3.141592653589793,188.9,4671.0,8.449128460502108,2022-06-07 16:32:24
609,Main,6,1,40,Letter designer,True,h_AB,h_AD,True,False,True,Probably same,1,3.141592653589793,188.9,4782.0,8.47261414801827,2022-06-07 16:32:24
610,Main,6,1,41,Letter designer,True,n_AD,n_BD,True,False,False,Sure different,1,3.141592653589793,188.9,3641.0,8.200013648175434,2022-06-07 16:32:24
611,Main,6,1,42,Letter designer,True,h_AD,h_BC,True,True,False,Sure different,1,3.141592653589793,188.9,3141.0,8.052296499538647,2022-06-07 16:32:24
612,Main,6,1,43,Letter designer,True,j_AB,j_AD,True,False,True,Probably same,1,3.141592653589793,188.9,3517.0,8.165363632473982,2022-06-07 16:32:24
613,Main,6,1,44,Letter designer,True,c_AA,c_AA,False,True,True,Probably different,0,0.0,188.9,5004.0,8.517992871586802,2022-06-07 16:32:24
614,Main,6,1,45,Letter designer,True,p_AB,p_AD,True,False,True,Probably same,1,3.141592653589793,188.9,4155.0,8.332067707289548,2022-06-07 16:32:24
615,Main,6,1,46,Letter designer,True,r_AD,r_AD,True,True,True,Probably different,0,0.0,188.9,4456.0,8.40200678160712,2022-06-07 16:32:24
616,Main,6,1,47,Letter designer,True,q_DD,q_AA,False,True,False,Sure different,1,3.141592653589793,188.9,3265.0,8.09101504171053,2022-06-07 16:32:24
617,Main,6,1,48,Letter designer,True,j_BD,j_AD,True,False,False,Sure different,1,3.141592653589793,188.9,3092.0,8.036573409707312,2022-06-07 16:32:24
618,Main,6,1,49,Letter designer,True,t_BC,t_AD,True,True,False,Probably same,0,0.0,188.9,3886.0,8.265135629937385,2022-06-07 16:32:24
619,Main,6,1,50,Letter designer,True,j_AA,j_AA,False,True,True,Probably same,1,3.141592653589793,188.9,4332.0,8.37378460812088,2022-06-07 16:32:24
620,Main,6,1,51,Letter designer,True,z_AB,z_AD,True,False,True,Probably same,1,3.141592653589793,188.9,3276.0,8.09437844497296,2022-06-07 16:32:24
621,Main,6,1,52,Letter designer,True,z_AA,z_AA,False,True,True,Probably same,1,3.141592653589793,188.9,3515.0,8.164794804244766,2022-06-07 16:32:24
622,Main,6,1,53,Letter designer,True,p_AD,p_AD,True,True,True,Probably same,1,3.141592653589793,188.9,3567.0,8.17948018535889,2022-06-07 16:32:24
623,Main,6,1,54,Letter designer,True,h_AD,h_AD,True,True,True,Probably same,1,3.141592653589793,188.9,3465.0,8.150467911624004,2022-06-07 16:32:24
624,Main,6,1,55,Letter designer,True,a_DD,a_AA,False,True,False,Sure different,1,3.141592653589793,188.9,3084.0,8.03398273468322,2022-06-07 16:32:24
625,Main,6,1,56,Letter designer,True,r_AA,r_DD,False,True,False,Sure different,1,3.141592653589793,188.9,3081.0,8.033009498596668,2022-06-07 16:32:24
626,Main,6,1,57,Letter designer,True,z_AD,z_AD,True,True,True,Probably same,1,3.141592653589793,188.9,3499.0,8.160232492367689,2022-06-07 16:32:24
627,Main,6,1,58,Letter designer,True,j_AA,j_DD,False,True,False,Sure different,1,3.141592653589793,188.9,3226.0,8.078998258685154,2022-06-07 16:32:24
628,Main,6,1,59,Letter designer,True,n_AB,n_AD,True,False,True,Probably same,1,3.141592653589793,188.9,3338.0,8.11312710422178,2022-06-07 16:32:24
629,Main,6,1,60,Letter designer,True,b_AD,b_BC,True,True,False,Sure different,1,3.141592653589793,188.9,3369.0,8.122371243406553,2022-06-07 16:32:24
630,Main,6,1,61,Letter designer,True,q_AB,q_AD,True,False,True,Probably same,1,3.141592653589793,188.9,3562.0,8.178077463849608,2022-06-07 16:32:24
631,Main,6,1,62,Letter designer,True,c_AD,c_BD,True,False,False,Probably different,1,3.141592653589793,188.9,4117.0,8.322880021769905,2022-06-07 16:32:24
632,Main,6,1,63,Letter designer,True,b_AD,b_BD,True,False,False,Sure different,1,3.141592653589793,188.9,3231.0,8.080546965824498,2022-06-07 16:32:24
633,Main,6,1,64,Letter designer,True,a_AD,a_AB,True,False,True,Probably different,0,0.0,188.9,3757.0,8.231376045573969,2022-06-07 16:32:24
634,Main,6,1,65,Letter designer,True,a_BD,a_AD,True,False,False,Probably different,1,3.141592653589793,188.9,5765.0,8.65956043270316,2022-06-07 16:32:24
635,Main,6,1,66,Letter designer,True,p_AA,p_AA,False,True,True,Probably same,1,3.141592653589793,188.9,3225.0,8.078688229229872,2022-06-07 16:32:24
636,Main,6,1,67,Letter designer,True,t_AA,t_AA,False,True,True,Probably different,0,0.0,188.9,4239.0,8.352082671352637,2022-06-07 16:32:24
637,Main,6,1,68,Letter designer,True,q_AA,q_AA,False,True,True,Probably same,1,3.141592653589793,188.9,3811.0,8.24564690087386,2022-06-07 16:32:24
638,Main,6,1,69,Letter designer,True,z_BC,z_AD,True,True,False,Probably different,1,3.141592653589793,188.9,13048.0,9.476390144300849,2022-06-07 16:32:24
639,Main,6,1,70,Letter designer,True,a_AD,a_AD,True,True,True,Probably same,1,3.141592653589793,188.9,3501.0,8.160803920954665,2022-06-07 16:32:24
640,Main,6,1,71,Letter designer,True,p_BC,p_AD,True,True,False,Sure different,1,3.141592653589793,188.9,3232.0,8.080856419640986,2022-06-07 16:32:24
641,Main,6,1,72,Letter designer,True,b_AD,b_AD,True,True,True,Probably same,1,3.141592653589793,188.9,3453.0,8.146998697389993,2022-06-07 16:32:24
642,Main,6,0,19,Letter designer,True,u_BD,u_AD,True,False,False,Sure different,1,3.141592653589793,725.0,4053.0,8.307212626628308,2022-06-07 16:32:24
643,Main,6,0,20,Letter designer,True,i_AD,i_AD,True,True,True,Probably same,1,3.141592653589793,800.0,4449.0,8.400434630806041,2022-06-07 16:32:24
644,Main,7,0,1,Graphic designer,True,d_BC,d_AD,True,True,False,Probably same,0,0.0,800.0,10452.0,9.254548626640503,2022-06-07 14:25:41
645,Main,7,0,2,Graphic designer,True,u_DD,u_AA,False,True,False,Sure different,1,3.141592653589793,800.0,3922.0,8.274357006756292,2022-06-07 14:25:41
646,Main,7,0,3,Graphic designer,True,d_DD,d_AA,False,True,False,Probably different,1,3.141592653589793,800.0,4366.0,8.38160253710989,2022-06-07 14:25:41
647,Main,7,0,4,Graphic designer,True,d_AA,d_AA,False,True,True,Sure same,1,3.141592653589793,725.0,3678.0,8.210124405164267,2022-06-07 14:25:41
648,Main,7,0,5,Graphic designer,True,i_AA,i_DD,False,True,False,Sure different,1,3.141592653589793,650.0,3368.0,8.122074375362217,2022-06-07 14:25:41
649,Main,7,0,6,Graphic designer,True,d_BC,d_AD,True,True,False,Sure different,1,3.141592653589793,575.0,3162.0,8.058960017769417,2022-06-07 14:25:41
650,Main,7,0,7,Graphic designer,True,i_AD,i_BD,True,False,False,Probably different,1,3.141592653589793,500.0,3847.0,8.255048902752295,2022-06-07 14:25:41
651,Main,7,0,8,Graphic designer,True,d_BD,d_AD,True,False,False,Sure different,1,3.141592653589793,425.0,2962.0,7.993619994827744,2022-06-07 14:25:41
652,Main,7,0,9,Graphic designer,True,u_AB,u_AD,True,False,True,Sure same,1,3.141592653589793,350.0,3175.0,8.063062911326792,2022-06-07 14:25:41
653,Main,7,0,10,Graphic designer,True,d_AB,d_AD,True,False,True,Probably same,1,3.141592653589793,275.0,3444.0,8.144388865547622,2022-06-07 14:25:41
654,Main,7,0,11,Graphic designer,True,u_BC,u_AD,True,True,False,Sure different,1,3.141592653589793,200.0,2877.0,7.964503363551548,2022-06-07 14:25:41
655,Main,7,0,12,Graphic designer,True,u_AA,u_AA,False,True,True,Sure same,1,3.141592653589793,200.0,2721.0,7.908754738783246,2022-06-07 14:25:41
656,Main,7,0,13,Graphic designer,True,i_BC,i_AD,True,True,False,Sure different,1,3.141592653589793,275.0,3258.0,8.08886878916199,2022-06-07 14:25:41
657,Main,7,0,14,Graphic designer,True,i_AD,i_AB,True,False,True,Sure same,1,3.141592653589793,350.0,4916.0,8.500250470685925,2022-06-07 14:25:41
658,Main,7,0,15,Graphic designer,True,u_AD,u_AD,True,True,True,Sure same,1,3.141592653589793,425.0,2755.0,7.9211727215870145,2022-06-07 14:25:41
659,Main,7,0,16,Graphic designer,True,u_AA,u_DD,False,True,False,Sure different,1,3.141592653589793,500.0,3489.0,8.157370441186774,2022-06-07 14:25:41
660,Main,7,0,17,Graphic designer,True,d_AD,d_AD,True,True,True,Probably different,0,0.0,575.0,3759.0,8.231908243564177,2022-06-07 14:25:41
661,Main,7,0,18,Graphic designer,True,i_AA,i_AA,False,True,True,Probably same,1,3.141592653589793,650.0,4229.0,8.34972083747249,2022-06-07 14:25:41
662,Main,7,1,1,Graphic designer,True,b_AA,b_DD,False,True,False,Sure different,1,3.141592653589793,188.9,4930.0,8.503094267036737,2022-06-07 14:25:41
663,Main,7,1,2,Graphic designer,True,c_AD,c_BD,True,False,False,Sure same,0,0.0,188.9,3970.0,8.286521373681236,2022-06-07 14:25:41
664,Main,7,1,3,Graphic designer,True,h_AB,h_AD,True,False,True,Sure same,1,3.141592653589793,188.9,2867.0,7.96102146588337,2022-06-07 14:25:41
665,Main,7,1,4,Graphic designer,True,q_AD,q_AD,True,True,True,Sure same,1,3.141592653589793,188.9,3163.0,8.059276223305648,2022-06-07 14:25:41
666,Main,7,1,5,Graphic designer,True,j_AB,j_AD,True,False,True,Probably same,1,3.141592653589793,188.9,4478.0,8.4069317971587,2022-06-07 14:25:41
667,Main,7,1,6,Graphic designer,True,b_AB,b_AD,True,False,True,Sure same,1,3.141592653589793,188.9,2740.0,7.9157131993821155,2022-06-07 14:25:41
668,Main,7,1,7,Graphic designer,True,e_DD,e_AA,False,True,False,Sure different,1,3.141592653589793,188.9,3428.0,8.13973227971767,2022-06-07 14:25:41
669,Main,7,1,8,Graphic designer,True,q_AD,q_AB,True,False,True,Probably same,1,3.141592653589793,188.9,3595.0,8.187299270155147,2022-06-07 14:25:41
670,Main,7,1,9,Graphic designer,True,p_AD,p_BD,True,False,False,Sure different,1,3.141592653589793,188.9,3192.0,8.068402958569699,2022-06-07 14:25:41
671,Main,7,1,10,Graphic designer,True,j_DD,j_AA,False,True,False,Sure different,1,3.141592653589793,188.9,2594.0,7.860956364876389,2022-06-07 14:25:41
672,Main,7,1,11,Graphic designer,True,a_AA,a_AA,False,True,True,Sure same,1,3.141592653589793,188.9,2856.0,7.957177323459475,2022-06-07 14:25:41
673,Main,7,1,12,Graphic designer,True,n_AD,n_BC,True,True,False,Sure different,1,3.141592653589793,188.9,2795.0,7.9355873855892,2022-06-07 14:25:41
674,Main,7,1,13,Graphic designer,True,j_AA,j_AA,False,True,True,Sure same,1,3.141592653589793,188.9,2736.0,7.914252278742441,2022-06-07 14:25:41
675,Main,7,1,14,Graphic designer,True,r_DD,r_AA,False,True,False,Sure different,1,3.141592653589793,188.9,3066.0,8.028129059431759,2022-06-07 14:25:41
676,Main,7,1,15,Graphic designer,True,t_AD,t_BD,True,False,False,Sure different,1,3.141592653589793,188.9,3200.0,8.070906088787819,2022-06-07 14:25:41
677,Main,7,1,16,Graphic designer,True,e_AA,e_AA,False,True,True,Probably same,1,3.141592653589793,188.9,3675.0,8.209308411646937,2022-06-07 14:25:41
678,Main,7,1,17,Graphic designer,True,t_AD,t_AB,True,False,True,Sure same,1,3.141592653589793,188.9,2612.0,7.867871490396322,2022-06-07 14:25:41
679,Main,7,1,18,Graphic designer,True,b_AA,b_AA,False,True,True,Sure same,1,3.141592653589793,188.9,2454.0,7.805474625270857,2022-06-07 14:25:41
680,Main,7,1,19,Graphic designer,True,t_AA,t_DD,False,True,False,Sure different,1,3.141592653589793,188.9,3042.0,8.020270472819238,2022-06-07 14:25:41
681,Main,7,1,20,Graphic designer,True,z_DD,z_AA,False,True,False,Sure different,1,3.141592653589793,188.9,2674.0,7.891330757661889,2022-06-07 14:25:41
682,Main,7,1,21,Graphic designer,True,b_AD,b_BC,True,True,False,Sure different,1,3.141592653589793,188.9,2821.0,7.944846711001996,2022-06-07 14:25:41
683,Main,7,1,22,Graphic designer,True,h_AD,h_BC,True,True,False,Sure different,1,3.141592653589793,188.9,2495.0,7.822044008185619,2022-06-07 14:25:41
