,StudyID,ParticipantID,TestID,TrialID,Training,isDesigner,First,Second,Composite pair,Congruent pair,Same,Response,Correct,Correct (normalized),ET,RT,RT (normalized),Date
0,Main,0,0,1,Letter designer,True,d_AD,d_BC,True,True,False,Probably different,1,3.141592653589793,800.0,9886.0,9.198874893866904,2022-06-06 11:48:27
1,Main,0,0,2,Letter designer,True,u_AA,u_DD,False,True,False,Sure different,1,3.141592653589793,800.0,5334.0,8.58185670474196,2022-06-06 11:48:27
2,Main,0,0,3,Letter designer,True,d_DD,d_AA,False,True,False,Sure different,1,3.141592653589793,800.0,3887.0,8.265392930852224,2022-06-06 11:48:27
3,Main,0,0,4,Letter designer,True,d_AA,d_AA,False,True,True,Sure same,1,3.141592653589793,725.0,6255.0,8.741136422901011,2022-06-06 11:48:27
4,Main,0,0,5,Letter designer,True,i_DD,i_AA,False,True,False,Sure different,1,3.141592653589793,650.0,3895.0,8.267448958304849,2022-06-06 11:48:27
5,Main,0,0,6,Letter designer,True,d_BC,d_AD,True,True,False,Sure different,1,3.141592653589793,575.0,4825.0,8.481566013773087,2022-06-06 11:48:27
6,Main,0,0,7,Letter designer,True,i_BD,i_AD,True,False,False,Sure different,1,3.141592653589793,500.0,3948.0,8.280964400553373,2022-06-06 11:48:27
7,Main,0,0,8,Letter designer,True,d_BD,d_AD,True,False,False,Sure different,1,3.141592653589793,425.0,3050.0,8.022896869601457,2022-06-06 11:48:27
8,Main,0,0,9,Letter designer,True,u_AB,u_AD,True,False,True,Sure same,1,3.141592653589793,350.0,3519.0,8.165932137321585,2022-06-06 11:48:27
9,Main,0,0,10,Letter designer,True,d_AB,d_AD,True,False,True,Sure same,1,3.141592653589793,275.0,3190.0,8.06777619577889,2022-06-06 11:48:27
10,Main,0,0,11,Letter designer,True,u_BC,u_AD,True,True,False,Sure different,1,3.141592653589793,200.0,3150.0,8.055157731819678,2022-06-06 11:48:27
11,Main,0,0,12,Letter designer,True,u_AA,u_AA,False,True,True,Sure same,1,3.141592653589793,200.0,4251.0,8.35490952835879,2022-06-06 11:48:27
12,Main,0,0,13,Letter designer,True,i_BC,i_AD,True,True,False,Sure different,1,3.141592653589793,275.0,3303.0,8.10258642539079,2022-06-06 11:48:27
13,Main,0,0,14,Letter designer,True,i_AB,i_AD,True,False,True,Sure same,1,3.141592653589793,350.0,4503.0,8.412499120301572,2022-06-06 11:48:27
14,Main,0,0,15,Letter designer,True,u_AD,u_AD,True,True,True,Sure same,1,3.141592653589793,425.0,3821.0,8.2482674474469,2022-06-06 11:48:27
15,Main,0,0,16,Letter designer,True,u_AA,u_DD,False,True,False,Sure different,1,3.141592653589793,500.0,3473.0,8.152774052744075,2022-06-06 11:48:27
16,Main,0,0,17,Letter designer,True,d_AD,d_AD,True,True,True,Sure same,1,3.141592653589793,575.0,3533.0,8.169902647359145,2022-06-06 11:48:27
17,Main,0,0,18,Letter designer,True,i_AA,i_AA,False,True,True,Sure same,1,3.141592653589793,650.0,4221.0,8.347827345782498,2022-06-06 11:48:27
18,Main,0,1,1,Letter designer,True,e_BD,e_AD,True,False,False,Probably different,1,3.141592653589793,150.0,8536.0,9.05204779298159,2022-06-06 11:48:27
19,Main,0,1,2,Letter designer,True,h_AD,h_BC,True,True,False,Probably different,1,3.141592653589793,150.0,4563.0,8.425735580927402,2022-06-06 11:48:27
20,Main,0,1,3,Letter designer,True,e_AD,e_AD,True,True,True,Probably same,1,3.141592653589793,150.0,4464.0,8.403800504061147,2022-06-06 11:48:27
21,Main,0,1,4,Letter designer,True,r_AD,r_AD,True,True,True,Sure same,1,3.141592653589793,150.0,3759.0,8.231908243564177,2022-06-06 11:48:27
22,Main,0,1,5,Letter designer,True,r_AD,r_BD,True,False,False,Sure different,1,3.141592653589793,150.0,3002.0,8.007034012193408,2022-06-06 11:48:27
23,Main,0,1,6,Letter designer,True,q_DD,q_AA,False,True,False,Sure different,1,3.141592653589793,150.0,5005.0,8.518192691749322,2022-06-06 11:48:27
24,Main,0,1,7,Letter designer,True,c_AD,c_BC,True,True,False,Sure same,0,0.0,150.0,3503.0,8.161375023197486,2022-06-06 11:48:27
25,Main,0,1,8,Letter designer,True,h_AD,h_BD,True,False,False,Sure different,1,3.141592653589793,150.0,4374.0,8.383433201236713,2022-06-06 11:48:27
26,Main,0,1,9,Letter designer,True,j_AB,j_AD,True,False,True,Sure same,1,3.141592653589793,150.0,3364.0,8.120886021092838,2022-06-06 11:48:27
27,Main,0,1,10,Letter designer,True,q_AD,q_BC,True,True,False,Sure different,1,3.141592653589793,150.0,3817.0,8.247220052745229,2022-06-06 11:48:27
28,Main,0,1,11,Letter designer,True,q_AD,q_AB,True,False,True,Sure different,0,0.0,150.0,3522.0,8.166784289056151,2022-06-06 11:48:27
29,Main,0,1,12,Letter designer,True,n_AB,n_AD,True,False,True,Probably same,1,3.141592653589793,150.0,3801.0,8.24301946898925,2022-06-06 11:48:27
30,Main,0,1,13,Letter designer,True,t_AD,t_AD,True,True,True,Probably same,1,3.141592653589793,150.0,4153.0,8.331586243630754,2022-06-06 11:48:27
31,Main,0,1,14,Letter designer,True,q_AD,q_AD,True,True,True,Sure different,0,0.0,150.0,3519.0,8.165932137321585,2022-06-06 11:48:27
32,Main,0,1,15,Letter designer,True,p_AB,p_AD,True,False,True,Probably same,1,3.141592653589793,150.0,5219.0,8.560061091643414,2022-06-06 11:48:27
33,Main,0,1,16,Letter designer,True,a_DD,a_AA,False,True,False,Sure different,1,3.141592653589793,150.0,3389.0,8.128290171607052,2022-06-06 11:48:27
34,Main,0,1,17,Letter designer,True,z_AD,z_AD,True,True,True,Sure same,1,3.141592653589793,150.0,3316.0,8.106514516255185,2022-06-06 11:48:27
35,Main,0,1,18,Letter designer,True,j_AD,j_BC,True,True,False,Sure different,1,3.141592653589793,150.0,3403.0,8.132412674500905,2022-06-06 11:48:27
36,Main,0,1,19,Letter designer,True,e_AA,e_AA,False,True,True,Sure same,1,3.141592653589793,150.0,3385.0,8.127109185346375,2022-06-06 11:48:27
37,Main,0,1,20,Letter designer,True,n_BD,n_AD,True,False,False,Sure different,1,3.141592653589793,150.0,3972.0,8.287025025165063,2022-06-06 11:48:27
38,Main,0,1,21,Letter designer,True,p_AA,p_DD,False,True,False,Sure different,1,3.141592653589793,150.0,3380.0,8.125630988477065,2022-06-06 11:48:27
39,Main,0,1,22,Letter designer,True,j_AA,j_AA,False,True,True,Probably different,0,0.0,150.0,4820.0,8.480529207044645,2022-06-06 11:48:27
40,Main,0,1,23,Letter designer,True,j_AD,j_AD,True,True,True,Sure same,1,3.141592653589793,150.0,3956.0,8.282988692742602,2022-06-06 11:48:27
41,Main,0,1,24,Letter designer,True,r_AB,r_AD,True,False,True,Probably same,1,3.141592653589793,150.0,5457.0,8.604654467186231,2022-06-06 11:48:27
42,Main,0,1,25,Letter designer,True,z_AD,z_AB,True,False,True,Sure same,1,3.141592653589793,150.0,3641.0,8.200013648175434,2022-06-06 11:48:27
43,Main,0,1,26,Letter designer,True,a_AD,a_BD,True,False,False,Probably same,0,0.0,150.0,3720.0,8.221478947267192,2022-06-06 11:48:27
44,Main,0,1,27,Letter designer,True,t_AA,t_AA,False,True,True,Probably same,1,3.141592653589793,150.0,4318.0,8.370547611074752,2022-06-06 11:48:27
45,Main,0,1,28,Letter designer,True,n_AD,n_AD,True,True,True,Sure same,1,3.141592653589793,150.0,3659.0,8.204945165019208,2022-06-06 11:48:27
46,Main,0,1,29,Letter designer,True,t_AB,t_AD,True,False,True,Sure same,1,3.141592653589793,150.0,3127.0,8.047829357457841,2022-06-06 11:48:27
47,Main,0,1,30,Letter designer,True,c_AA,c_DD,False,True,False,Sure different,1,3.141592653589793,150.0,3503.0,8.161375023197486,2022-06-06 11:48:27
48,Main,0,1,31,Letter designer,True,r_DD,r_AA,False,True,False,Sure different,1,3.141592653589793,150.0,4169.0,8.335431477880796,2022-06-06 11:48:27
49,Main,0,1,32,Letter designer,True,z_BD,z_AD,True,False,False,Sure different,1,3.141592653589793,150.0,3053.0,8.023879992734878,2022-06-06 11:48:27
50,Main,0,1,33,Letter designer,True,p_AD,p_AD,True,True,True,Sure same,1,3.141592653589793,150.0,4066.0,8.310414994188292,2022-06-06 11:48:27
51,Main,0,1,34,Letter designer,True,t_AA,t_DD,False,True,False,Sure different,1,3.141592653589793,150.0,3668.0,8.207401833376355,2022-06-06 11:48:27
52,Main,0,1,35,Letter designer,True,c_AD,c_AD,True,True,True,Probably different,0,0.0,150.0,5806.0,8.666647144584575,2022-06-06 11:48:27
53,Main,0,1,36,Letter designer,True,a_AA,a_AA,False,True,True,Sure same,1,3.141592653589793,150.0,3567.0,8.17948018535889,2022-06-06 11:48:27
54,Main,0,1,37,Letter designer,True,z_AA,z_AA,False,True,True,Sure same,1,3.141592653589793,150.0,3602.0,8.189244525735901,2022-06-06 11:48:27
55,Main,0,1,38,Letter designer,True,a_AD,a_AB,True,False,True,Sure same,1,3.141592653589793,150.0,4068.0,8.31090675716845,2022-06-06 11:48:27
56,Main,0,1,39,Letter designer,True,e_AD,e_AB,True,False,True,Sure same,1,3.141592653589793,150.0,3222.0,8.07775756373692,2022-06-06 11:48:27
57,Main,0,1,40,Letter designer,True,b_BD,b_AD,True,False,False,Sure different,1,3.141592653589793,150.0,3214.0,8.075271546297458,2022-06-06 11:48:27
58,Main,0,1,41,Letter designer,True,a_AD,a_AD,True,True,True,Sure same,1,3.141592653589793,150.0,3653.0,8.203304026795282,2022-06-06 11:48:27
59,Main,0,1,42,Letter designer,True,e_AA,e_DD,False,True,False,Sure different,1,3.141592653589793,150.0,3035.0,8.017966703493599,2022-06-06 11:48:27
60,Main,0,1,43,Letter designer,True,h_AD,h_AB,True,False,True,Sure same,1,3.141592653589793,150.0,3287.0,8.097730573664219,2022-06-06 11:48:27
61,Main,0,1,44,Letter designer,True,h_AA,h_DD,False,True,False,Sure different,1,3.141592653589793,150.0,2831.0,7.9483852851118995,2022-06-06 11:48:27
62,Main,0,1,45,Letter designer,True,h_AA,h_AA,False,True,True,Sure same,1,3.141592653589793,150.0,3904.0,8.269756947532983,2022-06-06 11:48:27
63,Main,0,1,46,Letter designer,True,r_AD,r_BC,True,True,False,Sure different,1,3.141592653589793,150.0,4035.0,8.302761580704049,2022-06-06 11:48:27
64,Main,0,1,47,Letter designer,True,b_DD,b_AA,False,True,False,Sure different,1,3.141592653589793,150.0,2804.0,7.938802248154481,2022-06-06 11:48:27
65,Main,0,1,48,Letter designer,True,q_AD,q_BD,True,False,False,Probably same,0,0.0,150.0,4551.0,8.423102268016642,2022-06-06 11:48:27
66,Main,0,1,49,Letter designer,True,r_AA,r_AA,False,True,True,Sure same,1,3.141592653589793,150.0,3240.0,8.083328608786376,2022-06-06 11:48:27
67,Main,0,1,50,Letter designer,True,q_AA,q_AA,False,True,True,Probably different,0,0.0,150.0,4233.0,8.350666240520924,2022-06-06 11:48:27
68,Main,0,1,51,Letter designer,True,p_AD,p_BD,True,False,False,Sure different,1,3.141592653589793,150.0,3105.0,8.040768994367578,2022-06-06 11:48:27
69,Main,0,1,52,Letter designer,True,t_BD,t_AD,True,False,False,Sure same,0,0.0,150.0,3417.0,8.136518252115291,2022-06-06 11:48:27
70,Main,0,1,53,Letter designer,True,b_AD,b_AD,True,True,True,Sure same,1,3.141592653589793,150.0,3536.0,8.170751423757535,2022-06-06 11:48:27
71,Main,0,1,54,Letter designer,True,t_AD,t_BC,True,True,False,Sure same,0,0.0,150.0,3867.0,8.260234291607297,2022-06-06 11:48:27
72,Main,0,1,55,Letter designer,True,j_AA,j_DD,False,True,False,Sure different,1,3.141592653589793,150.0,3089.0,8.035602692918582,2022-06-06 11:48:27
73,Main,0,1,56,Letter designer,True,n_AA,n_DD,False,True,False,Sure different,1,3.141592653589793,150.0,3450.0,8.146129510025405,2022-06-06 11:48:27
74,Main,0,1,57,Letter designer,True,h_AD,h_AD,True,True,True,Sure same,1,3.141592653589793,150.0,3018.0,8.012349639327795,2022-06-06 11:48:27
75,Main,0,1,58,Letter designer,True,c_BD,c_AD,True,False,False,Sure different,1,3.141592653589793,150.0,4922.0,8.501470230951002,2022-06-06 11:48:27
76,Main,0,1,59,Letter designer,True,z_AD,z_BC,True,True,False,Sure different,1,3.141592653589793,150.0,3315.0,8.106212902619962,2022-06-06 11:48:27
77,Main,0,1,60,Letter designer,True,z_DD,z_AA,False,True,False,Sure different,1,3.141592653589793,150.0,2851.0,7.955425088912672,2022-06-06 11:48:27
78,Main,0,1,61,Letter designer,True,j_AD,j_BD,True,False,False,Sure different,1,3.141592653589793,150.0,3269.0,8.092239406724211,2022-06-06 11:48:27
79,Main,0,1,62,Letter designer,True,b_AA,b_AA,False,True,True,Sure same,1,3.141592653589793,150.0,3188.0,8.067149039910106,2022-06-06 11:48:27
80,Main,0,1,63,Letter designer,True,c_AD,c_AB,True,False,True,Sure same,1,3.141592653589793,150.0,3904.0,8.269756947532983,2022-06-06 11:48:27
81,Main,0,1,64,Letter designer,True,n_BC,n_AD,True,True,False,Sure different,1,3.141592653589793,150.0,3130.0,8.048788283534199,2022-06-06 11:48:27
82,Main,0,1,65,Letter designer,True,c_AA,c_AA,False,True,True,Sure same,1,3.141592653589793,150.0,3156.0,8.057060681965766,2022-06-06 11:48:27
83,Main,0,1,66,Letter designer,True,p_AD,p_BC,True,True,False,Sure different,1,3.141592653589793,150.0,2868.0,7.961370201719511,2022-06-06 11:48:27
84,Main,0,1,67,Letter designer,True,b_AD,b_BC,True,True,False,Sure different,1,3.141592653589793,150.0,6481.0,8.776630098427717,2022-06-06 11:48:27
85,Main,0,1,68,Letter designer,True,p_AA,p_AA,False,True,True,Probably same,1,3.141592653589793,150.0,3855.0,8.25712628599743,2022-06-06 11:48:27
86,Main,0,1,69,Letter designer,True,e_BC,e_AD,True,True,False,Sure same,0,0.0,150.0,3269.0,8.092239406724211,2022-06-06 11:48:27
87,Main,0,1,70,Letter designer,True,b_AD,b_AB,True,False,True,Sure same,1,3.141592653589793,150.0,3551.0,8.174984532943087,2022-06-06 11:48:27
88,Main,0,1,71,Letter designer,True,a_BC,a_AD,True,True,False,Sure same,0,0.0,150.0,4133.0,8.326758814511733,2022-06-06 11:48:27
89,Main,0,1,72,Letter designer,True,n_AA,n_AA,False,True,True,Sure same,1,3.141592653589793,150.0,3986.0,8.29054350077274,2022-06-06 11:48:27
90,Main,0,0,19,Letter designer,True,u_AD,u_BD,True,False,False,Sure different,1,3.141592653589793,725.0,3569.0,8.18004072349016,2022-06-06 11:48:27
91,Main,0,0,20,Letter designer,True,i_AD,i_AD,True,True,True,Sure same,1,3.141592653589793,800.0,4437.0,8.39773375137891,2022-06-06 11:48:27
92,Main,1,0,1,Graphic designer,True,d_BC,d_AD,True,True,False,Probably same,0,0.0,800.0,10050.0,9.215327913487222,2022-06-06 10:44:45
93,Main,1,0,2,Graphic designer,True,u_DD,u_AA,False,True,False,Sure different,1,3.141592653589793,800.0,4439.0,8.398184404834035,2022-06-06 10:44:45
94,Main,1,0,3,Graphic designer,True,d_DD,d_AA,False,True,False,Sure different,1,3.141592653589793,800.0,4184.0,8.339023005744759,2022-06-06 10:44:45
95,Main,1,0,4,Graphic designer,True,d_AA,d_AA,False,True,True,Probably same,1,3.141592653589793,725.0,4031.0,8.301769763117166,2022-06-06 10:44:45
96,Main,1,0,5,Graphic designer,True,i_AA,i_DD,False,True,False,Sure different,1,3.141592653589793,650.0,3328.0,8.1101268019411,2022-06-06 10:44:45
97,Main,1,0,6,Graphic designer,True,d_BC,d_AD,True,True,False,Sure same,0,0.0,575.0,4400.0,8.389359819906353,2022-06-06 10:44:45
98,Main,1,0,7,Graphic designer,True,i_BD,i_AD,True,False,False,Probably same,0,0.0,500.0,4680.0,8.451053388911692,2022-06-06 10:44:45
99,Main,1,0,8,Graphic designer,True,d_BD,d_AD,True,False,False,Probably same,0,0.0,425.0,4512.0,8.414495793177895,2022-06-06 10:44:45
100,Main,1,0,9,Graphic designer,True,u_AB,u_AD,True,False,True,Probably same,1,3.141592653589793,350.0,3632.0,8.197538739721184,2022-06-06 10:44:45
101,Main,1,0,10,Graphic designer,True,d_AB,d_AD,True,False,True,Probably same,1,3.141592653589793,275.0,3160.0,8.058327306580958,2022-06-06 10:44:45
102,Main,1,0,11,Graphic designer,True,u_AD,u_BC,True,True,False,Probably same,0,0.0,200.0,2856.0,7.957177323459475,2022-06-06 10:44:45
103,Main,1,0,12,Graphic designer,True,u_AA,u_AA,False,True,True,Probably same,1,3.141592653589793,200.0,3440.0,8.143226750367445,2022-06-06 10:44:45
104,Main,1,0,13,Graphic designer,True,i_AD,i_BC,True,True,False,Probably same,0,0.0,275.0,2858.0,7.957877358489813,2022-06-06 10:44:45
105,Main,1,0,14,Graphic designer,True,i_AD,i_AB,True,False,True,Sure same,1,3.141592653589793,350.0,2942.0,7.9868449011613825,2022-06-06 10:44:45
106,Main,1,0,15,Graphic designer,True,u_AD,u_AD,True,True,True,Sure same,1,3.141592653589793,425.0,2960.0,7.992944547318106,2022-06-06 10:44:45
107,Main,1,0,16,Graphic designer,True,u_DD,u_AA,False,True,False,Sure different,1,3.141592653589793,500.0,3224.0,8.07837810362652,2022-06-06 10:44:45
108,Main,1,0,17,Graphic designer,True,d_AD,d_AD,True,True,True,Probably same,1,3.141592653589793,575.0,3588.0,8.185350223178686,2022-06-06 10:44:45
109,Main,1,0,18,Graphic designer,True,i_AA,i_AA,False,True,True,Sure same,1,3.141592653589793,650.0,3356.0,8.118505067587098,2022-06-06 10:44:45
110,Main,1,1,1,Graphic designer,True,j_BC,j_AD,True,True,False,Probably same,0,0.0,383.3,5437.0,8.600982717145921,2022-06-06 10:44:45
111,Main,1,1,2,Graphic designer,True,r_AB,r_AD,True,False,True,Probably same,1,3.141592653589793,383.3,2711.0,7.905072849498666,2022-06-06 10:44:45
112,Main,1,1,3,Graphic designer,True,q_AD,q_BC,True,True,False,Probably same,0,0.0,383.3,2720.0,7.908387159290043,2022-06-06 10:44:45
113,Main,1,1,4,Graphic designer,True,b_AA,b_AA,False,True,True,Probably same,1,3.141592653589793,383.3,3128.0,8.048149101665201,2022-06-06 10:44:45
114,Main,1,1,5,Graphic designer,True,z_AA,z_AA,False,True,True,Sure same,1,3.141592653589793,383.3,2817.0,7.943427767876373,2022-06-06 10:44:45
115,Main,1,1,6,Graphic designer,True,z_BD,z_AD,True,False,False,Sure different,1,3.141592653589793,383.3,2896.0,7.971085753505607,2022-06-06 10:44:45
116,Main,1,1,7,Graphic designer,True,z_AD,z_AB,True,False,True,Sure same,1,3.141592653589793,383.3,3000.0,8.006367567650246,2022-06-06 10:44:45
117,Main,1,1,8,Graphic designer,True,r_BC,r_AD,True,True,False,Sure same,0,0.0,383.3,2743.0,7.916807490937603,2022-06-06 10:44:45
118,Main,1,1,9,Graphic designer,True,r_BD,r_AD,True,False,False,Sure same,0,0.0,383.3,2808.0,7.940227765145702,2022-06-06 10:44:45
119,Main,1,1,10,Graphic designer,True,t_AA,t_AA,False,True,True,Sure same,1,3.141592653589793,383.3,2728.0,7.911324018963353,2022-06-06 10:44:45
120,Main,1,1,11,Graphic designer,True,t_AD,t_BD,True,False,False,Probably same,0,0.0,383.3,2808.0,7.940227765145702,2022-06-06 10:44:45
121,Main,1,1,12,Graphic designer,True,e_AD,e_BD,True,False,False,Probably different,1,3.141592653589793,383.3,2823.0,7.945555428253489,2022-06-06 10:44:45
122,Main,1,1,13,Graphic designer,True,t_AD,t_AB,True,False,True,Probably different,0,0.0,383.3,3305.0,8.103191752285786,2022-06-06 10:44:45
123,Main,1,1,14,Graphic designer,True,b_AB,b_AD,True,False,True,Probably same,1,3.141592653589793,383.3,4601.0,8.434028950155469,2022-06-06 10:44:45
124,Main,1,1,15,Graphic designer,True,h_AD,h_AD,True,True,True,Probably same,1,3.141592653589793,383.3,3936.0,8.277920258172143,2022-06-06 10:44:45
125,Main,1,1,16,Graphic designer,True,q_BD,q_AD,True,False,False,Probably same,0,0.0,383.3,2791.0,7.934155233536322,2022-06-06 10:44:45
126,Main,1,1,17,Graphic designer,True,h_DD,h_AA,False,True,False,Sure different,1,3.141592653589793,383.3,2744.0,7.917171988845776,2022-06-06 10:44:45
127,Main,1,1,18,Graphic designer,True,q_AD,q_AD,True,True,True,Probably same,1,3.141592653589793,383.3,3408.0,8.133880887949207,2022-06-06 10:44:45
128,Main,1,1,19,Graphic designer,True,z_AD,z_BC,True,True,False,Sure different,1,3.141592653589793,383.3,3383.0,8.12651816878071,2022-06-06 10:44:45
129,Main,1,1,20,Graphic designer,True,a_AA,a_AA,False,True,True,Probably same,1,3.141592653589793,383.3,3265.0,8.09101504171053,2022-06-06 10:44:45
130,Main,1,1,21,Graphic designer,True,p_AD,p_AD,True,True,True,Probably same,1,3.141592653589793,383.3,3767.0,8.23403420769204,2022-06-06 10:44:45
131,Main,1,1,22,Graphic designer,True,e_AD,e_AD,True,True,True,Probably same,1,3.141592653589793,383.3,3241.0,8.083637203141548,2022-06-06 10:44:45
132,Main,1,1,23,Graphic designer,True,n_AD,n_AD,True,True,True,Probably same,1,3.141592653589793,383.3,2799.0,7.937017489515454,2022-06-06 10:44:45
133,Main,1,1,24,Graphic designer,True,q_AA,q_DD,False,True,False,Sure different,1,3.141592653589793,383.3,2929.0,7.982416346827733,2022-06-06 10:44:45
134,Main,1,1,25,Graphic designer,True,z_AA,z_DD,False,True,False,Sure different,1,3.141592653589793,383.3,2632.0,7.875499292445208,2022-06-06 10:44:45
135,Main,1,1,26,Graphic designer,True,h_AA,h_AA,False,True,True,Probably same,1,3.141592653589793,383.3,4009.0,8.296297112642508,2022-06-06 10:44:45
136,Main,1,1,27,Graphic designer,True,t_DD,t_AA,False,True,False,Sure different,1,3.141592653589793,383.3,2959.0,7.99260665240021,2022-06-06 10:44:45
137,Main,1,1,28,Graphic designer,True,b_AA,b_DD,False,True,False,Sure different,1,3.141592653589793,383.3,2680.0,7.893572073504902,2022-06-06 10:44:45
138,Main,1,1,29,Graphic designer,True,n_DD,n_AA,False,True,False,Sure different,1,3.141592653589793,383.3,2449.0,7.803435056952168,2022-06-06 10:44:45
139,Main,1,1,30,Graphic designer,True,a_AB,a_AD,True,False,True,Sure different,0,0.0,383.3,3791.0,8.240385115516334,2022-06-06 10:44:45
140,Main,1,1,31,Graphic designer,True,n_AA,n_AA,False,True,True,Probably different,0,0.0,383.3,3320.0,8.107720061910534,2022-06-06 10:44:45
141,Main,1,1,32,Graphic designer,True,q_AA,q_AA,False,True,True,Probably same,1,3.141592653589793,383.3,2983.0,8.000684784514748,2022-06-06 10:44:45
142,Main,1,1,33,Graphic designer,True,h_BD,h_AD,True,False,False,Sure different,1,3.141592653589793,383.3,3000.0,8.006367567650246,2022-06-06 10:44:45
143,Main,1,1,34,Graphic designer,True,p_AA,p_DD,False,True,False,Sure different,1,3.141592653589793,383.3,2577.0,7.854381210652365,2022-06-06 10:44:45
144,Main,1,1,35,Graphic designer,True,t_AD,t_AD,True,True,True,Probably different,0,0.0,383.3,3432.0,8.140898460607852,2022-06-06 10:44:45
145,Main,1,1,36,Graphic designer,True,a_BC,a_AD,True,True,False,Sure same,0,0.0,383.3,3544.0,8.173011311724972,2022-06-06 10:44:45
146,Main,1,1,37,Graphic designer,True,e_DD,e_AA,False,True,False,Probably same,0,0.0,383.3,7815.0,8.963800242855577,2022-06-06 10:44:45
147,Main,1,1,38,Graphic designer,True,r_AD,r_AD,True,True,True,Sure same,1,3.141592653589793,383.3,3376.0,8.124446855715847,2022-06-06 10:44:45
148,Main,1,1,39,Graphic designer,True,p_AA,p_AA,False,True,True,Probably same,1,3.141592653589793,383.3,3648.0,8.201934351194222,2022-06-06 10:44:45
149,Main,1,1,40,Graphic designer,True,n_AB,n_AD,True,False,True,Sure same,1,3.141592653589793,383.3,2977.0,7.998671361015776,2022-06-06 10:44:45
150,Main,1,1,41,Graphic designer,True,c_AD,c_AD,True,True,True,Sure same,1,3.141592653589793,383.3,3064.0,8.027476530860483,2022-06-06 10:44:45
151,Main,1,1,42,Graphic designer,True,e_AD,e_BC,True,True,False,Sure same,0,0.0,383.3,2456.0,7.806289289267033,2022-06-06 10:44:45
152,Main,1,1,43,Graphic designer,True,b_BC,b_AD,True,True,False,Sure different,1,3.141592653589793,383.3,2959.0,7.99260665240021,2022-06-06 10:44:45
153,Main,1,1,44,Graphic designer,True,h_BC,h_AD,True,True,False,Sure different,1,3.141592653589793,383.3,2321.0,7.749753406274437,2022-06-06 10:44:45
154,Main,1,1,45,Graphic designer,True,j_AB,j_AD,True,False,True,Sure same,1,3.141592653589793,383.3,3920.0,8.273846932784508,2022-06-06 10:44:45
155,Main,1,1,46,Graphic designer,True,a_BD,a_AD,True,False,False,Probably same,0,0.0,383.3,3104.0,8.04044688130311,2022-06-06 10:44:45
156,Main,1,1,47,Graphic designer,True,j_BD,j_AD,True,False,False,Sure different,1,3.141592653589793,383.3,3361.0,8.119993827725105,2022-06-06 10:44:45
157,Main,1,1,48,Graphic designer,True,n_BC,n_AD,True,True,False,Sure different,1,3.141592653589793,383.3,3030.0,8.016317898503415,2022-06-06 10:44:45
158,Main,1,1,49,Graphic designer,True,p_AB,p_AD,True,False,True,Probably same,1,3.141592653589793,383.3,3216.0,8.075893630298857,2022-06-06 10:44:45
159,Main,1,1,50,Graphic designer,True,j_AA,j_AA,False,True,True,Sure same,1,3.141592653589793,383.3,4481.0,8.407601514786142,2022-06-06 10:44:45
160,Main,1,1,51,Graphic designer,True,p_AD,p_BC,True,True,False,Probably same,0,0.0,383.3,3600.0,8.1886891244442,2022-06-06 10:44:45
161,Main,1,1,52,Graphic designer,True,c_AA,c_DD,False,True,False,Sure different,1,3.141592653589793,383.3,2823.0,7.945555428253489,2022-06-06 10:44:45
162,Main,1,1,53,Graphic designer,True,r_AA,r_DD,False,True,False,Sure different,1,3.141592653589793,383.3,3018.0,8.012349639327795,2022-06-06 10:44:45
163,Main,1,1,54,Graphic designer,True,b_AD,b_AD,True,True,True,Probably same,1,3.141592653589793,383.3,3431.0,8.14060704285845,2022-06-06 10:44:45
164,Main,1,1,55,Graphic designer,True,c_BD,c_AD,True,False,False,Sure same,0,0.0,383.3,3289.0,8.098338846189057,2022-06-06 10:44:45
165,Main,1,1,56,Graphic designer,True,a_AA,a_DD,False,True,False,Sure different,1,3.141592653589793,383.3,2879.0,7.965198290612176,2022-06-06 10:44:45
166,Main,1,1,57,Graphic designer,True,j_DD,j_AA,False,True,False,Sure different,1,3.141592653589793,383.3,2475.0,7.813995675002791,2022-06-06 10:44:45
167,Main,1,1,58,Graphic designer,True,t_BC,t_AD,True,True,False,Probably different,1,3.141592653589793,383.3,3668.0,8.207401833376355,2022-06-06 10:44:45
168,Main,1,1,59,Graphic designer,True,z_AD,z_AD,True,True,True,Probably same,1,3.141592653589793,383.3,4259.0,8.356789669923213,2022-06-06 10:44:45
169,Main,1,1,60,Graphic designer,True,h_AB,h_AD,True,False,True,Probably same,1,3.141592653589793,383.3,3630.0,8.196987927258897,2022-06-06 10:44:45
170,Main,1,1,61,Graphic designer,True,b_AD,b_BD,True,False,False,Probably different,1,3.141592653589793,383.3,3488.0,8.15708378502887,2022-06-06 10:44:45
171,Main,1,1,62,Graphic designer,True,p_AD,p_BD,True,False,False,Probably different,1,3.141592653589793,383.3,5943.0,8.68996933536666,2022-06-06 10:44:45
172,Main,1,1,63,Graphic designer,True,c_AD,c_BC,True,True,False,Probably different,1,3.141592653589793,383.3,3427.0,8.139440521874608,2022-06-06 10:44:45
173,Main,1,1,64,Graphic designer,True,e_AA,e_AA,False,True,True,Sure same,1,3.141592653589793,383.3,3968.0,8.286017468404763,2022-06-06 10:44:45
174,Main,1,1,65,Graphic designer,True,c_AD,c_AB,True,False,True,Sure same,1,3.141592653589793,383.3,2501.0,7.824445930877619,2022-06-06 10:44:45
175,Main,1,1,66,Graphic designer,True,r_AA,r_AA,False,True,True,Sure same,1,3.141592653589793,383.3,2313.0,7.746300662231439,2022-06-06 10:44:45
176,Main,1,1,67,Graphic designer,True,a_AD,a_AD,True,True,True,Sure same,1,3.141592653589793,383.3,2680.0,7.893572073504902,2022-06-06 10:44:45
177,Main,1,1,68,Graphic designer,True,c_AA,c_AA,False,True,True,Probably same,1,3.141592653589793,383.3,3335.0,8.112227958349724,2022-06-06 10:44:45
178,Main,1,1,69,Graphic designer,True,q_AB,q_AD,True,False,True,Probably same,1,3.141592653589793,383.3,3176.0,8.063377822367027,2022-06-06 10:44:45
179,Main,1,1,70,Graphic designer,True,e_AD,e_AB,True,False,True,Probably same,1,3.141592653589793,383.3,4585.0,8.430545384690566,2022-06-06 10:44:45
180,Main,1,1,71,Graphic designer,True,n_BD,n_AD,True,False,False,Probably different,1,3.141592653589793,383.3,3679.0,8.210396255104774,2022-06-06 10:44:45
181,Main,1,1,72,Graphic designer,True,j_AD,j_AD,True,True,True,Sure same,1,3.141592653589793,383.3,2729.0,7.911690520708339,2022-06-06 10:44:45
182,Main,1,0,19,Graphic designer,True,u_BD,u_AD,True,False,False,Probably same,0,0.0,725.0,3696.0,8.215006432761575,2022-06-06 10:44:45
183,Main,1,0,20,Graphic designer,True,i_AD,i_AD,True,True,True,Sure same,1,3.141592653589793,800.0,3616.0,8.193123721512068,2022-06-06 10:44:45
184,Main,2,0,1,Letter designer,True,d_AD,d_BC,True,True,False,Sure different,1,3.141592653589793,800.0,12364.0,9.422544303252007,2022-06-06 08:54:10
185,Main,2,0,2,Letter designer,True,u_AA,u_DD,False,True,False,Sure different,1,3.141592653589793,800.0,9145.0,9.120962560824966,2022-06-06 08:54:10
186,Main,2,0,3,Letter designer,True,d_DD,d_AA,False,True,False,Sure different,1,3.141592653589793,800.0,5386.0,8.591558273371545,2022-06-06 08:54:10
187,Main,2,0,4,Letter designer,True,d_AA,d_AA,False,True,True,Sure same,1,3.141592653589793,725.0,4099.0,8.318498320504338,2022-06-06 08:54:10
188,Main,2,0,5,Letter designer,True,i_DD,i_AA,False,True,False,Sure different,1,3.141592653589793,650.0,3448.0,8.145549631783584,2022-06-06 08:54:10
189,Main,2,0,6,Letter designer,True,d_AD,d_BC,True,True,False,Sure different,1,3.141592653589793,575.0,4430.0,8.39615486303918,2022-06-06 08:54:10
190,Main,2,0,7,Letter designer,True,i_AD,i_BD,True,False,False,Sure different,1,3.141592653589793,500.0,3936.0,8.277920258172143,2022-06-06 08:54:10
191,Main,2,0,8,Letter designer,True,d_BD,d_AD,True,False,False,Sure different,1,3.141592653589793,425.0,3215.0,8.07558263667172,2022-06-06 08:54:10
192,Main,2,0,9,Letter designer,True,u_AD,u_AB,True,False,True,Sure same,1,3.141592653589793,350.0,3486.0,8.156510226079966,2022-06-06 08:54:10
193,Main,2,0,10,Letter designer,True,d_AB,d_AD,True,False,True,Sure same,1,3.141592653589793,275.0,3247.0,8.085486772102845,2022-06-06 08:54:10
194,Main,2,0,11,Letter designer,True,u_BC,u_AD,True,True,False,Sure different,1,3.141592653589793,200.0,3180.0,8.064636475774222,2022-06-06 08:54:10
195,Main,2,0,12,Letter designer,True,u_AA,u_AA,False,True,True,Sure same,1,3.141592653589793,200.0,2863.0,7.959625305098115,2022-06-06 08:54:10
196,Main,2,0,13,Letter designer,True,i_BC,i_AD,True,True,False,Sure different,1,3.141592653589793,275.0,3352.0,8.117312461601975,2022-06-06 08:54:10
197,Main,2,0,14,Letter designer,True,i_AD,i_AB,True,False,True,Sure same,1,3.141592653589793,350.0,3802.0,8.243282523048375,2022-06-06 08:54:10
198,Main,2,0,15,Letter designer,True,u_AD,u_AD,True,True,True,Sure same,1,3.141592653589793,425.0,3182.0,8.065265208897733,2022-06-06 08:54:10
199,Main,2,0,16,Letter designer,True,u_AA,u_DD,False,True,False,Sure different,1,3.141592653589793,500.0,3197.0,8.069968149059841,2022-06-06 08:54:10
200,Main,2,0,17,Letter designer,True,d_AD,d_AD,True,True,True,Sure same,1,3.141592653589793,575.0,3350.0,8.116715624819111,2022-06-06 08:54:10
201,Main,2,0,18,Letter designer,True,i_AA,i_AA,False,True,True,Sure same,1,3.141592653589793,650.0,3404.0,8.132706489693264,2022-06-06 08:54:10
202,Main,2,1,1,Letter designer,True,z_BD,z_AD,True,False,False,Sure different,1,3.141592653589793,150.0,5474.0,8.607764889600624,2022-06-06 08:54:10
203,Main,2,1,2,Letter designer,True,q_AB,q_AD,True,False,True,Sure same,1,3.141592653589793,150.0,3187.0,8.066835314417336,2022-06-06 08:54:10
204,Main,2,1,3,Letter designer,True,h_DD,h_AA,False,True,False,Sure different,1,3.141592653589793,150.0,2498.0,7.823245690685523,2022-06-06 08:54:10
205,Main,2,1,4,Letter designer,True,z_AD,z_AB,True,False,True,Probably same,1,3.141592653589793,150.0,3857.0,8.257644958208228,2022-06-06 08:54:10
206,Main,2,1,5,Letter designer,True,e_AB,e_AD,True,False,True,Sure same,1,3.141592653589793,150.0,5279.0,8.571491964823617,2022-06-06 08:54:10
207,Main,2,1,6,Letter designer,True,p_BC,p_AD,True,True,False,Probably different,1,3.141592653589793,150.0,4226.0,8.349011198176003,2022-06-06 08:54:10
208,Main,2,1,7,Letter designer,True,c_AD,c_AD,True,True,True,Sure same,1,3.141592653589793,150.0,3348.0,8.116118431609365,2022-06-06 08:54:10
209,Main,2,1,8,Letter designer,True,t_AD,t_BC,True,True,False,Probably same,0,0.0,150.0,4216.0,8.346642090221199,2022-06-06 08:54:10
210,Main,2,1,9,Letter designer,True,t_AB,t_AD,True,False,True,Sure same,1,3.141592653589793,150.0,3107.0,8.041412909393047,2022-06-06 08:54:10
211,Main,2,1,10,Letter designer,True,z_DD,z_AA,False,True,False,Sure different,1,3.141592653589793,150.0,2831.0,7.9483852851118995,2022-06-06 08:54:10
212,Main,2,1,11,Letter designer,True,n_AA,n_AA,False,True,True,Sure same,1,3.141592653589793,150.0,2915.0,7.977625098784593,2022-06-06 08:54:10
213,Main,2,1,12,Letter designer,True,h_BC,h_AD,True,True,False,Probably same,0,0.0,150.0,3640.0,8.199738960630786,2022-06-06 08:54:10
214,Main,2,1,13,Letter designer,True,p_AD,p_AB,True,False,True,Sure same,1,3.141592653589793,150.0,3628.0,8.196436811235028,2022-06-06 08:54:10
215,Main,2,1,14,Letter designer,True,p_AA,p_AA,False,True,True,Sure same,1,3.141592653589793,150.0,2623.0,7.872073979866873,2022-06-06 08:54:10
216,Main,2,1,15,Letter designer,True,j_BD,j_AD,True,False,False,Sure different,1,3.141592653589793,150.0,2572.0,7.85243908535751,2022-06-06 08:54:10
217,Main,2,1,16,Letter designer,True,n_DD,n_AA,False,True,False,Sure different,1,3.141592653589793,150.0,3360.0,8.11969625295725,2022-06-06 08:54:10
218,Main,2,1,17,Letter designer,True,q_AD,q_BC,True,True,False,Sure same,0,0.0,150.0,2853.0,7.9561263512135,2022-06-06 08:54:10
219,Main,2,1,18,Letter designer,True,j_AA,j_DD,False,True,False,Sure different,1,3.141592653589793,150.0,2501.0,7.824445930877619,2022-06-06 08:54:10
220,Main,2,1,19,Letter designer,True,q_AD,q_BD,True,False,False,Sure same,0,0.0,150.0,2737.0,7.914617709040679,2022-06-06 08:54:10
221,Main,2,1,20,Letter designer,True,a_AB,a_AD,True,False,True,Sure same,1,3.141592653589793,150.0,3117.0,8.044626279767337,2022-06-06 08:54:10
222,Main,2,1,21,Letter designer,True,j_AA,j_AA,False,True,True,Sure same,1,3.141592653589793,150.0,2606.0,7.8655717576847906,2022-06-06 08:54:10
223,Main,2,1,22,Letter designer,True,n_BC,n_AD,True,True,False,Sure same,0,0.0,150.0,2746.0,7.917900586327916,2022-06-06 08:54:10
224,Main,2,1,23,Letter designer,True,r_AB,r_AD,True,False,True,Sure same,1,3.141592653589793,150.0,2571.0,7.852050207265889,2022-06-06 08:54:10
225,Main,2,1,24,Letter designer,True,r_DD,r_AA,False,True,False,Sure different,1,3.141592653589793,150.0,2564.0,7.849323818040561,2022-06-06 08:54:10
226,Main,2,1,25,Letter designer,True,t_BD,t_AD,True,False,False,Sure different,1,3.141592653589793,150.0,2767.0,7.925518979786926,2022-06-06 08:54:10
227,Main,2,1,26,Letter designer,True,c_AD,c_BD,True,False,False,Sure different,1,3.141592653589793,150.0,3118.0,8.044947049617722,2022-06-06 08:54:10
228,Main,2,1,27,Letter designer,True,b_AD,b_AB,True,False,True,Sure same,1,3.141592653589793,150.0,2873.0,7.96311205897929,2022-06-06 08:54:10
229,Main,2,1,28,Letter designer,True,e_AA,e_AA,False,True,True,Sure same,1,3.141592653589793,150.0,2585.0,7.85748078694253,2022-06-06 08:54:10
230,Main,2,1,29,Letter designer,True,a_BD,a_AD,True,False,False,Sure same,0,0.0,150.0,2580.0,7.855544677915663,2022-06-06 08:54:10
231,Main,2,1,30,Letter designer,True,t_AD,t_AD,True,True,True,Sure same,1,3.141592653589793,150.0,2767.0,7.925518979786926,2022-06-06 08:54:10
232,Main,2,1,31,Letter designer,True,j_AD,j_AD,True,True,True,Sure same,1,3.141592653589793,150.0,2523.0,7.833203948641057,2022-06-06 08:54:10
233,Main,2,1,32,Letter designer,True,j_AD,j_AB,True,False,True,Sure same,1,3.141592653589793,150.0,2532.0,7.836764783264067,2022-06-06 08:54:10
234,Main,2,1,33,Letter designer,True,q_DD,q_AA,False,True,False,Sure different,1,3.141592653589793,150.0,2931.0,7.983098940710892,2022-06-06 08:54:10
235,Main,2,1,34,Letter designer,True,a_AD,a_AD,True,True,True,Sure same,1,3.141592653589793,150.0,2698.0,7.900266036767701,2022-06-06 08:54:10
236,Main,2,1,35,Letter designer,True,n_AD,n_AD,True,True,True,Sure same,1,3.141592653589793,150.0,2904.0,7.973844375944687,2022-06-06 08:54:10
237,Main,2,1,36,Letter designer,True,t_DD,t_AA,False,True,False,Sure different,1,3.141592653589793,150.0,2850.0,7.955074273262696,2022-06-06 08:54:10
238,Main,2,1,37,Letter designer,True,r_BC,r_AD,True,True,False,Sure same,0,0.0,150.0,2911.0,7.976251943745623,2022-06-06 08:54:10
239,Main,2,1,38,Letter designer,True,a_AA,a_DD,False,True,False,Sure different,1,3.141592653589793,150.0,3100.0,8.039157390473237,2022-06-06 08:54:10
240,Main,2,1,39,Letter designer,True,j_AD,j_BC,True,True,False,Sure different,1,3.141592653589793,150.0,3136.0,8.0507033814703,2022-06-06 08:54:10
241,Main,2,1,40,Letter designer,True,b_BD,b_AD,True,False,False,Sure different,1,3.141592653589793,150.0,2699.0,7.900636613018005,2022-06-06 08:54:10
242,Main,2,1,41,Letter designer,True,z_AA,z_AA,False,True,True,Sure same,1,3.141592653589793,150.0,2754.0,7.9208096792886,2022-06-06 08:54:10
243,Main,2,1,42,Letter designer,True,h_AA,h_AA,False,True,True,Sure same,1,3.141592653589793,150.0,2597.0,7.862112211662748,2022-06-06 08:54:10
244,Main,2,1,43,Letter designer,True,z_BC,z_AD,True,True,False,Sure different,1,3.141592653589793,150.0,2651.0,7.8826922062890254,2022-06-06 08:54:10
245,Main,2,1,44,Letter designer,True,h_BD,h_AD,True,False,False,Sure different,1,3.141592653589793,150.0,2634.0,7.876258882303226,2022-06-06 08:54:10
246,Main,2,1,45,Letter designer,True,z_AD,z_AD,True,True,True,Sure same,1,3.141592653589793,150.0,2675.0,7.891704659330107,2022-06-06 08:54:10
247,Main,2,1,46,Letter designer,True,c_AB,c_AD,True,False,True,Probably different,0,0.0,150.0,3947.0,8.280711075662847,2022-06-06 08:54:10
248,Main,2,1,47,Letter designer,True,a_AA,a_AA,False,True,True,Sure same,1,3.141592653589793,150.0,3170.0,8.061486866871327,2022-06-06 08:54:10
249,Main,2,1,48,Letter designer,True,p_AD,p_BD,True,False,False,Sure different,1,3.141592653589793,150.0,2896.0,7.971085753505607,2022-06-06 08:54:10
250,Main,2,1,49,Letter designer,True,r_BD,r_AD,True,False,False,Sure same,0,0.0,150.0,2819.0,7.9441374911141125,2022-06-06 08:54:10
251,Main,2,1,50,Letter designer,True,e_AD,e_BC,True,True,False,Sure same,0,0.0,150.0,2714.0,7.906178840394815,2022-06-06 08:54:10
252,Main,2,1,51,Letter designer,True,b_DD,b_AA,False,True,False,Sure different,1,3.141592653589793,150.0,3235.0,8.081784206935001,2022-06-06 08:54:10
253,Main,2,1,52,Letter designer,True,c_AA,c_DD,False,True,False,Sure different,1,3.141592653589793,150.0,2933.0,7.983781068977451,2022-06-06 08:54:10
254,Main,2,1,53,Letter designer,True,a_BC,a_AD,True,True,False,Sure same,0,0.0,150.0,2656.0,7.884576510596324,2022-06-06 08:54:10
255,Main,2,1,54,Letter designer,True,e_AD,e_AD,True,True,True,Sure same,1,3.141592653589793,150.0,2610.0,7.867105500316739,2022-06-06 08:54:10
256,Main,2,1,55,Letter designer,True,r_AA,r_AA,False,True,True,Sure same,1,3.141592653589793,150.0,2734.0,7.913521017283895,2022-06-06 08:54:10
257,Main,2,1,56,Letter designer,True,r_AD,r_AD,True,True,True,Sure same,1,3.141592653589793,150.0,2485.0,7.818027938530729,2022-06-06 08:54:10
258,Main,2,1,57,Letter designer,True,p_DD,p_AA,False,True,False,Sure different,1,3.141592653589793,150.0,2501.0,7.824445930877619,2022-06-06 08:54:10
259,Main,2,1,58,Letter designer,True,n_AD,n_BD,True,False,False,Sure different,1,3.141592653589793,150.0,3249.0,8.0861025356691,2022-06-06 08:54:10
260,Main,2,1,59,Letter designer,True,t_AA,t_AA,False,True,True,Sure same,1,3.141592653589793,150.0,2948.0,7.988882253309227,2022-06-06 08:54:10
261,Main,2,1,60,Letter designer,True,e_DD,e_AA,False,True,False,Sure different,1,3.141592653589793,150.0,2850.0,7.955074273262696,2022-06-06 08:54:10
262,Main,2,1,61,Letter designer,True,b_AD,b_AD,True,True,True,Sure same,1,3.141592653589793,150.0,2838.0,7.950854857719988,2022-06-06 08:54:10
263,Main,2,1,62,Letter designer,True,b_AA,b_AA,False,True,True,Sure same,1,3.141592653589793,150.0,2566.0,7.850103545175582,2022-06-06 08:54:10
264,Main,2,1,63,Letter designer,True,n_AD,n_AB,True,False,True,Sure same,1,3.141592653589793,150.0,2582.0,7.856319571406588,2022-06-06 08:54:10
265,Main,2,1,64,Letter designer,True,p_AD,p_AD,True,True,True,Sure same,1,3.141592653589793,150.0,2567.0,7.8504931808711405,2022-06-06 08:54:10
266,Main,2,1,65,Letter designer,True,b_AD,b_BC,True,True,False,Sure different,1,3.141592653589793,150.0,2653.0,7.88344635413774,2022-06-06 08:54:10
267,Main,2,1,66,Letter designer,True,q_AA,q_AA,False,True,True,Sure same,1,3.141592653589793,150.0,2647.0,7.881182202227102,2022-06-06 08:54:10
268,Main,2,1,67,Letter designer,True,h_AB,h_AD,True,False,True,Sure same,1,3.141592653589793,150.0,2700.0,7.90100705199242,2022-06-06 08:54:10
269,Main,2,1,68,Letter designer,True,c_BC,c_AD,True,True,False,Sure different,1,3.141592653589793,150.0,2668.0,7.889084407035514,2022-06-06 08:54:10
270,Main,2,1,69,Letter designer,True,c_AA,c_AA,False,True,True,Sure same,1,3.141592653589793,150.0,2840.0,7.951559331155252,2022-06-06 08:54:10
271,Main,2,1,70,Letter designer,True,q_AD,q_AD,True,True,True,Sure same,1,3.141592653589793,150.0,2526.0,7.8343923029104365,2022-06-06 08:54:10
272,Main,2,1,71,Letter designer,True,h_AD,h_AD,True,True,True,Sure same,1,3.141592653589793,150.0,2583.0,7.8567067930958405,2022-06-06 08:54:10
273,Main,2,1,72,Letter designer,True,e_BD,e_AD,True,False,False,Sure same,0,0.0,150.0,2514.0,7.829630389150193,2022-06-06 08:54:10
274,Main,2,0,19,Letter designer,True,u_AD,u_BD,True,False,False,Sure different,1,3.141592653589793,725.0,3899.0,8.268475388982598,2022-06-06 08:54:10
275,Main,2,0,20,Letter designer,True,i_AD,i_AD,True,True,True,Sure same,1,3.141592653589793,800.0,3699.0,8.215817791832453,2022-06-06 08:54:10
276,Main,3,0,1,Letter designer,True,d_BC,d_AD,True,True,False,Probably same,0,0.0,800.0,10330.0,9.242807562113684,2022-06-06 07:43:42
277,Main,3,0,2,Letter designer,True,u_DD,u_AA,False,True,False,Sure different,1,3.141592653589793,800.0,4879.0,8.492695559815838,2022-06-06 07:43:42
278,Main,3,0,3,Letter designer,True,d_DD,d_AA,False,True,False,Sure different,1,3.141592653589793,800.0,4114.0,8.322151070212902,2022-06-06 07:43:42
279,Main,3,0,4,Letter designer,True,d_AA,d_AA,False,True,True,Probably same,1,3.141592653589793,725.0,5046.0,8.526351129201004,2022-06-06 07:43:42
280,Main,3,0,5,Letter designer,True,i_AA,i_DD,False,True,False,Sure different,1,3.141592653589793,650.0,3724.0,8.222553638396958,2022-06-06 07:43:42
281,Main,3,0,6,Letter designer,True,d_BC,d_AD,True,True,False,Sure different,1,3.141592653589793,575.0,3664.0,8.20631072579402,2022-06-06 07:43:42
282,Main,3,0,7,Letter designer,True,i_AD,i_BD,True,False,False,Probably different,1,3.141592653589793,500.0,9901.0,9.200391041122515,2022-06-06 07:43:42
283,Main,3,0,8,Letter designer,True,d_BD,d_AD,True,False,False,Sure different,1,3.141592653589793,425.0,3057.0,8.025189321890835,2022-06-06 07:43:42
284,Main,3,0,9,Letter designer,True,u_AD,u_AB,True,False,True,Sure same,1,3.141592653589793,350.0,4019.0,8.2987883944492,2022-06-06 07:43:42
285,Main,3,0,10,Letter designer,True,d_AD,d_AB,True,False,True,Probably same,1,3.141592653589793,275.0,3437.0,8.142354276849835,2022-06-06 07:43:42
286,Main,3,0,11,Letter designer,True,u_AD,u_BC,True,True,False,Sure different,1,3.141592653589793,200.0,3002.0,8.007034012193408,2022-06-06 07:43:42
287,Main,3,0,12,Letter designer,True,u_AA,u_AA,False,True,True,Probably same,1,3.141592653589793,200.0,3295.0,8.100161446936607,2022-06-06 07:43:42
288,Main,3,0,13,Letter designer,True,i_AD,i_BC,True,True,False,Sure different,1,3.141592653589793,275.0,2885.0,7.9672801789422,2022-06-06 07:43:42
289,Main,3,0,14,Letter designer,True,i_AD,i_AB,True,False,True,Probably same,1,3.141592653589793,350.0,3677.0,8.209852481301272,2022-06-06 07:43:42
290,Main,3,0,15,Letter designer,True,u_AD,u_AD,True,True,True,Probably same,1,3.141592653589793,425.0,3388.0,8.127995055771946,2022-06-06 07:43:42
291,Main,3,0,16,Letter designer,True,u_AA,u_DD,False,True,False,Sure different,1,3.141592653589793,500.0,2994.0,8.004365564979574,2022-06-06 07:43:42
292,Main,3,0,17,Letter designer,True,d_AD,d_AD,True,True,True,Probably same,1,3.141592653589793,575.0,4139.0,8.328209491748732,2022-06-06 07:43:42
293,Main,3,0,18,Letter designer,True,i_AA,i_AA,False,True,True,Sure same,1,3.141592653589793,650.0,3318.0,8.10711747075039,2022-06-06 07:43:42
294,Main,3,1,1,Letter designer,True,t_BD,t_AD,True,False,False,Probably same,0,0.0,150.0,6183.0,8.729558869558568,2022-06-06 07:43:42
295,Main,3,1,2,Letter designer,True,c_AA,c_DD,False,True,False,Sure different,1,3.141592653589793,150.0,2799.0,7.937017489515454,2022-06-06 07:43:42
296,Main,3,1,3,Letter designer,True,r_AD,r_AB,True,False,True,Probably same,1,3.141592653589793,150.0,3657.0,8.204398418149381,2022-06-06 07:43:42
297,Main,3,1,4,Letter designer,True,a_AD,a_AD,True,True,True,Probably same,1,3.141592653589793,150.0,4767.0,8.469472455204826,2022-06-06 07:43:42
298,Main,3,1,5,Letter designer,True,r_AA,r_DD,False,True,False,Sure different,1,3.141592653589793,150.0,2800.0,7.937374696163295,2022-06-06 07:43:42
299,Main,3,1,6,Letter designer,True,n_AA,n_AA,False,True,True,Sure same,1,3.141592653589793,150.0,3138.0,8.051340933292979,2022-06-06 07:43:42
300,Main,3,1,7,Letter designer,True,p_AD,p_AB,True,False,True,Sure same,1,3.141592653589793,150.0,2650.0,7.882314918980268,2022-06-06 07:43:42
301,Main,3,1,8,Letter designer,True,p_AA,p_AA,False,True,True,Probably same,1,3.141592653589793,150.0,2705.0,7.902857191280582,2022-06-06 07:43:42
302,Main,3,1,9,Letter designer,True,t_AA,t_AA,False,True,True,Probably same,1,3.141592653589793,150.0,2883.0,7.9665866976384025,2022-06-06 07:43:42
303,Main,3,1,10,Letter designer,True,z_AD,z_BD,True,False,False,Sure different,1,3.141592653589793,150.0,3024.0,8.014335737299424,2022-06-06 07:43:42
304,Main,3,1,11,Letter designer,True,j_BD,j_AD,True,False,False,Probably different,1,3.141592653589793,150.0,3335.0,8.112227958349724,2022-06-06 07:43:42
305,Main,3,1,12,Letter designer,True,z_AD,z_BC,True,True,False,Sure different,1,3.141592653589793,150.0,2551.0,7.844240718141811,2022-06-06 07:43:42
306,Main,3,1,13,Letter designer,True,r_BD,r_AD,True,False,False,Sure different,1,3.141592653589793,150.0,5608.0,8.631949428714426,2022-06-06 07:43:42
307,Main,3,1,14,Letter designer,True,e_BC,e_AD,True,True,False,Probably different,1,3.141592653589793,150.0,3710.0,8.21878715560148,2022-06-06 07:43:42
308,Main,3,1,15,Letter designer,True,p_AD,p_BC,True,True,False,Sure different,1,3.141592653589793,150.0,2868.0,7.961370201719511,2022-06-06 07:43:42
309,Main,3,1,16,Letter designer,True,b_DD,b_AA,False,True,False,Sure different,1,3.141592653589793,150.0,2484.0,7.81762544305337,2022-06-06 07:43:42
310,Main,3,1,17,Letter designer,True,c_AA,c_AA,False,True,True,Probably different,0,0.0,150.0,8598.0,9.059284897056227,2022-06-06 07:43:42
311,Main,3,1,18,Letter designer,True,r_AD,r_AD,True,True,True,Probably same,1,3.141592653589793,150.0,4962.0,8.509564164251746,2022-06-06 07:43:42
312,Main,3,1,19,Letter designer,True,q_BD,q_AD,True,False,False,Sure different,1,3.141592653589793,150.0,3040.0,8.019612794400267,2022-06-06 07:43:42
313,Main,3,1,20,Letter designer,True,b_AD,b_BC,True,True,False,Probably different,1,3.141592653589793,150.0,3350.0,8.116715624819111,2022-06-06 07:43:42
314,Main,3,1,21,Letter designer,True,p_BD,p_AD,True,False,False,Sure different,1,3.141592653589793,150.0,2492.0,7.820840879907344,2022-06-06 07:43:42
315,Main,3,1,22,Letter designer,True,j_AA,j_AA,False,True,True,Probably same,1,3.141592653589793,150.0,2906.0,7.974532844130228,2022-06-06 07:43:42
316,Main,3,1,23,Letter designer,True,n_AD,n_BD,True,False,False,Sure different,1,3.141592653589793,150.0,2598.0,7.862497197230545,2022-06-06 07:43:42
317,Main,3,1,24,Letter designer,True,t_AA,t_DD,False,True,False,Sure different,1,3.141592653589793,150.0,2680.0,7.893572073504902,2022-06-06 07:43:42
318,Main,3,1,25,Letter designer,True,c_AD,c_AD,True,True,True,Probably different,0,0.0,150.0,3056.0,8.024862150286411,2022-06-06 07:43:42
319,Main,3,1,26,Letter designer,True,q_AA,q_DD,False,True,False,Sure different,1,3.141592653589793,150.0,2566.0,7.850103545175582,2022-06-06 07:43:42
320,Main,3,1,27,Letter designer,True,b_AD,b_AD,True,True,True,Probably same,1,3.141592653589793,150.0,3312.0,8.10530751550515,2022-06-06 07:43:42
321,Main,3,1,28,Letter designer,True,t_AD,t_BC,True,True,False,Probably different,1,3.141592653589793,150.0,3792.0,8.240648863374913,2022-06-06 07:43:42
322,Main,3,1,29,Letter designer,True,z_AD,z_AB,True,False,True,Probably same,1,3.141592653589793,150.0,3529.0,8.16876982367527,2022-06-06 07:43:42
323,Main,3,1,30,Letter designer,True,e_AD,e_AD,True,True,True,Probably different,0,0.0,150.0,3368.0,8.122074375362217,2022-06-06 07:43:42
324,Main,3,1,31,Letter designer,True,z_AA,z_AA,False,True,True,Probably same,1,3.141592653589793,150.0,4123.0,8.3243363327069,2022-06-06 07:43:42
325,Main,3,1,32,Letter designer,True,t_AB,t_AD,True,False,True,Probably same,1,3.141592653589793,150.0,3513.0,8.164225652265827,2022-06-06 07:43:42
326,Main,3,1,33,Letter designer,True,n_AA,n_DD,False,True,False,Sure different,1,3.141592653589793,150.0,2585.0,7.85748078694253,2022-06-06 07:43:42
327,Main,3,1,34,Letter designer,True,p_DD,p_AA,False,True,False,Sure different,1,3.141592653589793,150.0,2536.0,7.8383433155571165,2022-06-06 07:43:42
328,Main,3,1,35,Letter designer,True,z_AD,z_AD,True,True,True,Probably same,1,3.141592653589793,150.0,2897.0,7.9714309977693505,2022-06-06 07:43:42
329,Main,3,1,36,Letter designer,True,h_BC,h_AD,True,True,False,Sure different,1,3.141592653589793,150.0,2914.0,7.97728198675515,2022-06-06 07:43:42
330,Main,3,1,37,Letter designer,True,r_AA,r_AA,False,True,True,Probably same,1,3.141592653589793,150.0,4611.0,8.436200032206706,2022-06-06 07:43:42
331,Main,3,1,38,Letter designer,True,z_DD,z_AA,False,True,False,Sure different,1,3.141592653589793,150.0,2787.0,7.932721027481948,2022-06-06 07:43:42
332,Main,3,1,39,Letter designer,True,h_AA,h_DD,False,True,False,Sure different,1,3.141592653589793,150.0,2439.0,7.79934339821592,2022-06-06 07:43:42
333,Main,3,1,40,Letter designer,True,r_BC,r_AD,True,True,False,Probably same,0,0.0,150.0,3319.0,8.107418811719974,2022-06-06 07:43:42
334,Main,3,1,41,Letter designer,True,c_AB,c_AD,True,False,True,Probably same,1,3.141592653589793,150.0,3646.0,8.201385955238608,2022-06-06 07:43:42
335,Main,3,1,42,Letter designer,True,a_AA,a_AA,False,True,True,Probably same,1,3.141592653589793,150.0,3994.0,8.29254851397576,2022-06-06 07:43:42
336,Main,3,1,43,Letter designer,True,b_AD,b_AB,True,False,True,Probably same,1,3.141592653589793,150.0,3424.0,8.138564737261632,2022-06-06 07:43:42
337,Main,3,1,44,Letter designer,True,j_AD,j_AD,True,True,True,Probably same,1,3.141592653589793,150.0,2800.0,7.937374696163295,2022-06-06 07:43:42
338,Main,3,1,45,Letter designer,True,j_AD,j_BC,True,True,False,Sure different,1,3.141592653589793,150.0,2487.0,7.818832443803404,2022-06-06 07:43:42
339,Main,3,1,46,Letter designer,True,q_AA,q_AA,False,True,True,Probably same,1,3.141592653589793,150.0,3258.0,8.08886878916199,2022-06-06 07:43:42
340,Main,3,1,47,Letter designer,True,n_AD,n_AD,True,True,True,Probably same,1,3.141592653589793,150.0,3167.0,8.06054004653864,2022-06-06 07:43:42
341,Main,3,1,48,Letter designer,True,h_AD,h_BD,True,False,False,Sure different,1,3.141592653589793,150.0,2486.0,7.818430272070656,2022-06-06 07:43:42
342,Main,3,1,49,Letter designer,True,a_AD,a_BD,True,False,False,Probably different,1,3.141592653589793,150.0,3882.0,8.264105763728956,2022-06-06 07:43:42
343,Main,3,1,50,Letter designer,True,c_AD,c_BC,True,True,False,Sure different,1,3.141592653589793,150.0,2792.0,7.934513463882263,2022-06-06 07:43:42
344,Main,3,1,51,Letter designer,True,q_AD,q_BC,True,True,False,Probably same,0,0.0,150.0,2936.0,7.984803389734406,2022-06-06 07:43:42
345,Main,3,1,52,Letter designer,True,h_AB,h_AD,True,False,True,Probably same,1,3.141592653589793,150.0,3206.0,8.072779333169498,2022-06-06 07:43:42
346,Main,3,1,53,Letter designer,True,e_AA,e_DD,False,True,False,Sure different,1,3.141592653589793,150.0,2973.0,7.997326822998097,2022-06-06 07:43:42
347,Main,3,1,54,Letter designer,True,p_AD,p_AD,True,True,True,Probably same,1,3.141592653589793,150.0,4310.0,8.368693183097793,2022-06-06 07:43:42
348,Main,3,1,55,Letter designer,True,e_BD,e_AD,True,False,False,Probably same,0,0.0,150.0,2793.0,7.934871565945177,2022-06-06 07:43:42
349,Main,3,1,56,Letter designer,True,a_DD,a_AA,False,True,False,Sure different,1,3.141592653589793,150.0,2732.0,7.912789220690681,2022-06-06 07:43:42
350,Main,3,1,57,Letter designer,True,n_BC,n_AD,True,True,False,Sure different,1,3.141592653589793,150.0,4175.0,8.336869637284956,2022-06-06 07:43:42
351,Main,3,1,58,Letter designer,True,e_AB,e_AD,True,False,True,Probably different,0,0.0,150.0,3071.0,8.029758520440822,2022-06-06 07:43:42
352,Main,3,1,59,Letter designer,True,b_AD,b_BD,True,False,False,Sure different,1,3.141592653589793,150.0,3079.0,8.0323601479245,2022-06-06 07:43:42
353,Main,3,1,60,Letter designer,True,c_BD,c_AD,True,False,False,Probably different,1,3.141592653589793,150.0,3279.0,8.095293776844649,2022-06-06 07:43:42
354,Main,3,1,61,Letter designer,True,n_AB,n_AD,True,False,True,Probably same,1,3.141592653589793,150.0,5556.0,8.622633703874234,2022-06-06 07:43:42
355,Main,3,1,62,Letter designer,True,e_AA,e_AA,False,True,True,Probably different,0,0.0,150.0,5178.0,8.552174160311482,2022-06-06 07:43:42
356,Main,3,1,63,Letter designer,True,a_AD,a_AB,True,False,True,Probably different,0,0.0,150.0,4012.0,8.297045149081827,2022-06-06 07:43:42
357,Main,3,1,64,Letter designer,True,j_DD,j_AA,False,True,False,Sure different,1,3.141592653589793,150.0,2726.0,7.9105906122564775,2022-06-06 07:43:42
358,Main,3,1,65,Letter designer,True,j_AD,j_AB,True,False,True,Sure same,1,3.141592653589793,150.0,3360.0,8.11969625295725,2022-06-06 07:43:42
359,Main,3,1,66,Letter designer,True,h_AD,h_AD,True,True,True,Sure same,1,3.141592653589793,150.0,2714.0,7.906178840394815,2022-06-06 07:43:42
360,Main,3,1,67,Letter designer,True,q_AD,q_AB,True,False,True,Probably same,1,3.141592653589793,150.0,12200.0,9.409191230721348,2022-06-06 07:43:42
361,Main,3,1,68,Letter designer,True,t_AD,t_AD,True,True,True,Probably same,1,3.141592653589793,150.0,2701.0,7.901377353792616,2022-06-06 07:43:42
362,Main,3,1,69,Letter designer,True,a_BC,a_AD,True,True,False,Probably same,0,0.0,150.0,2845.0,7.953318346560431,2022-06-06 07:43:42
363,Main,3,1,70,Letter designer,True,h_AA,h_AA,False,True,True,Sure same,1,3.141592653589793,150.0,3238.0,8.08271113423758,2022-06-06 07:43:42
364,Main,3,1,71,Letter designer,True,b_AA,b_AA,False,True,True,Probably same,1,3.141592653589793,150.0,4006.0,8.295548516225763,2022-06-06 07:43:42
365,Main,3,1,72,Letter designer,True,q_AD,q_AD,True,True,True,Probably same,1,3.141592653589793,150.0,3095.0,8.037543185118697,2022-06-06 07:43:42
366,Main,3,0,19,Letter designer,True,u_AD,u_BD,True,False,False,Sure different,1,3.141592653589793,725.0,3349.0,8.116417072794205,2022-06-06 07:43:42
367,Main,3,0,20,Letter designer,True,i_AD,i_AD,True,True,True,Sure same,1,3.141592653589793,800.0,3722.0,8.222016437202196,2022-06-06 07:43:42
368,Main,4,0,1,Letter designer,True,d_BC,d_AD,True,True,False,Sure same,0,0.0,800.0,7534.0,8.927181388251986,2022-06-06 06:49:39
369,Main,4,0,2,Letter designer,True,u_DD,u_AA,False,True,False,Sure different,1,3.141592653589793,800.0,6071.0,8.711278615130434,2022-06-06 06:49:39
370,Main,4,0,3,Letter designer,True,d_AA,d_DD,False,True,False,Sure different,1,3.141592653589793,800.0,4345.0,8.376781037699493,2022-06-06 06:49:39
371,Main,4,0,4,Letter designer,True,d_AA,d_AA,False,True,True,Sure same,1,3.141592653589793,725.0,4286.0,8.363109176033522,2022-06-06 06:49:39
372,Main,4,0,5,Letter designer,True,i_AA,i_DD,False,True,False,Sure different,1,3.141592653589793,650.0,4020.0,8.299037181613066,2022-06-06 06:49:39
373,Main,4,0,6,Letter designer,True,d_AD,d_BC,True,True,False,Sure different,1,3.141592653589793,575.0,4278.0,8.361240889642351,2022-06-06 06:49:39
374,Main,4,0,7,Letter designer,True,i_AD,i_BD,True,False,False,Sure different,1,3.141592653589793,500.0,3885.0,8.264878262801748,2022-06-06 06:49:39
375,Main,4,0,8,Letter designer,True,d_AD,d_BD,True,False,False,Sure different,1,3.141592653589793,425.0,3566.0,8.179199798423086,2022-06-06 06:49:39
376,Main,4,0,9,Letter designer,True,u_AB,u_AD,True,False,True,Sure same,1,3.141592653589793,350.0,4267.0,8.358666283188,2022-06-06 06:49:39
377,Main,4,0,10,Letter designer,True,d_AD,d_AB,True,False,True,Sure same,1,3.141592653589793,275.0,4167.0,8.334951631422454,2022-06-06 06:49:39
378,Main,4,0,11,Letter designer,True,u_AD,u_BC,True,True,False,Sure different,1,3.141592653589793,200.0,3300.0,8.101677747454572,2022-06-06 06:49:39
379,Main,4,0,12,Letter designer,True,u_AA,u_AA,False,True,True,Sure same,1,3.141592653589793,200.0,4134.0,8.327000740241713,2022-06-06 06:49:39
380,Main,4,0,13,Letter designer,True,i_AD,i_BC,True,True,False,Sure different,1,3.141592653589793,275.0,3650.0,8.202482446576537,2022-06-06 06:49:39
381,Main,4,0,14,Letter designer,True,i_AD,i_AB,True,False,True,Sure same,1,3.141592653589793,350.0,3835.0,8.251924713801357,2022-06-06 06:49:39
382,Main,4,0,15,Letter designer,True,u_AD,u_AD,True,True,True,Sure same,1,3.141592653589793,425.0,3782.0,8.238008249218403,2022-06-06 06:49:39
383,Main,4,0,16,Letter designer,True,u_DD,u_AA,False,True,False,Sure different,1,3.141592653589793,500.0,3553.0,8.175547596021026,2022-06-06 06:49:39
384,Main,4,0,17,Letter designer,True,d_AD,d_AD,True,True,True,Sure same,1,3.141592653589793,575.0,4083.0,8.314587291319576,2022-06-06 06:49:39
385,Main,4,0,18,Letter designer,True,i_AA,i_AA,False,True,True,Sure same,1,3.141592653589793,650.0,3932.0,8.276903481267057,2022-06-06 06:49:39
386,Main,4,1,1,Letter designer,True,q_AA,q_DD,False,True,False,Sure different,1,3.141592653589793,150.0,6297.0,8.747828608488742,2022-06-06 06:49:39
387,Main,4,1,2,Letter designer,True,q_AD,q_BD,True,False,False,Sure same,0,0.0,150.0,3913.0,8.272059622210412,2022-06-06 06:49:39
388,Main,4,1,3,Letter designer,True,h_AD,h_AD,True,True,True,Sure same,1,3.141592653589793,150.0,3352.0,8.117312461601975,2022-06-06 06:49:39
389,Main,4,1,4,Letter designer,True,e_BC,e_AD,True,True,False,Sure same,0,0.0,150.0,3682.0,8.211211361793023,2022-06-06 06:49:39
390,Main,4,1,5,Letter designer,True,p_AA,p_DD,False,True,False,Sure different,1,3.141592653589793,150.0,3204.0,8.07215530818825,2022-06-06 06:49:39
391,Main,4,1,6,Letter designer,True,z_AD,z_AD,True,True,True,Sure same,1,3.141592653589793,150.0,3247.0,8.085486772102845,2022-06-06 06:49:39
392,Main,4,1,7,Letter designer,True,j_AD,j_AB,True,False,True,Sure same,1,3.141592653589793,150.0,3668.0,8.207401833376355,2022-06-06 06:49:39
393,Main,4,1,8,Letter designer,True,b_DD,b_AA,False,True,False,Sure different,1,3.141592653589793,150.0,3116.0,8.044305406990638,2022-06-06 06:49:39
394,Main,4,1,9,Letter designer,True,r_AA,r_AA,False,True,True,Sure same,1,3.141592653589793,150.0,18302.0,9.814765622475324,2022-06-06 06:49:39
395,Main,4,1,10,Letter designer,True,t_AD,t_BC,True,True,False,Sure different,1,3.141592653589793,150.0,3483.0,8.155649270366002,2022-06-06 06:49:39
396,Main,4,1,11,Letter designer,True,r_BD,r_AD,True,False,False,Sure same,0,0.0,150.0,4734.0,8.46252579007393,2022-06-06 06:49:39
397,Main,4,1,12,Letter designer,True,j_AA,j_DD,False,True,False,Sure different,1,3.141592653589793,150.0,3350.0,8.116715624819111,2022-06-06 06:49:39
398,Main,4,1,13,Letter designer,True,n_BD,n_AD,True,False,False,Sure same,0,0.0,150.0,3634.0,8.198089248956116,2022-06-06 06:49:39
399,Main,4,1,14,Letter designer,True,t_AD,t_AB,True,False,True,Sure same,1,3.141592653589793,150.0,3287.0,8.097730573664219,2022-06-06 06:49:39
400,Main,4,1,15,Letter designer,True,p_BD,p_AD,True,False,False,Sure same,0,0.0,150.0,3212.0,8.074649075066652,2022-06-06 06:49:39
401,Main,4,1,16,Letter designer,True,e_BD,e_AD,True,False,False,Sure different,1,3.141592653589793,150.0,3801.0,8.24301946898925,2022-06-06 06:49:39
402,Main,4,1,17,Letter designer,True,t_AA,t_AA,False,True,True,Sure same,1,3.141592653589793,150.0,3218.0,8.076515327552329,2022-06-06 06:49:39
403,Main,4,1,18,Letter designer,True,c_AB,c_AD,True,False,True,Sure same,1,3.141592653589793,150.0,3168.0,8.060855752934316,2022-06-06 06:49:39
404,Main,4,1,19,Letter designer,True,z_AA,z_DD,False,True,False,Sure different,1,3.141592653589793,150.0,3148.0,8.054522609537294,2022-06-06 06:49:39
405,Main,4,1,20,Letter designer,True,q_AA,q_AA,False,True,True,Sure different,0,0.0,150.0,3517.0,8.165363632473982,2022-06-06 06:49:39
406,Main,4,1,21,Letter designer,True,n_AB,n_AD,True,False,True,Sure different,0,0.0,150.0,4817.0,8.479906606630221,2022-06-06 06:49:39
407,Main,4,1,22,Letter designer,True,e_DD,e_AA,False,True,False,Sure different,1,3.141592653589793,150.0,3468.0,8.151333337900432,2022-06-06 06:49:39
408,Main,4,1,23,Letter designer,True,h_BC,h_AD,True,True,False,Sure same,0,0.0,150.0,3386.0,8.12740456269308,2022-06-06 06:49:39
409,Main,4,1,24,Letter designer,True,a_BD,a_AD,True,False,False,Sure same,0,0.0,150.0,3180.0,8.064636475774222,2022-06-06 06:49:39
410,Main,4,1,25,Letter designer,True,c_AD,c_BD,True,False,False,Sure different,1,3.141592653589793,150.0,4117.0,8.322880021769905,2022-06-06 06:49:39
411,Main,4,1,26,Letter designer,True,e_AA,e_AA,False,True,True,Sure same,1,3.141592653589793,150.0,3336.0,8.112527763478637,2022-06-06 06:49:39
412,Main,4,1,27,Letter designer,True,t_DD,t_AA,False,True,False,Sure different,1,3.141592653589793,150.0,3252.0,8.087025470667701,2022-06-06 06:49:39
413,Main,4,1,28,Letter designer,True,t_AD,t_AD,True,True,True,Sure same,1,3.141592653589793,150.0,3346.0,8.11552088154677,2022-06-06 06:49:39
414,Main,4,1,29,Letter designer,True,e_AD,e_AD,True,True,True,Sure same,1,3.141592653589793,150.0,3184.0,8.065893546964274,2022-06-06 06:49:39
415,Main,4,1,30,Letter designer,True,j_AD,j_BD,True,False,False,Sure same,0,0.0,150.0,5033.0,8.52377150677636,2022-06-06 06:49:39
416,Main,4,1,31,Letter designer,True,p_AD,p_AB,True,False,True,Sure different,0,0.0,150.0,4034.0,8.302513718514158,2022-06-06 06:49:39
417,Main,4,1,32,Letter designer,True,b_AD,b_AD,True,True,True,Sure same,1,3.141592653589793,150.0,3351.0,8.11701408773731,2022-06-06 06:49:39
418,Main,4,1,33,Letter designer,True,r_AB,r_AD,True,False,True,Sure same,1,3.141592653589793,150.0,3733.0,8.224967478914584,2022-06-06 06:49:39
419,Main,4,1,34,Letter designer,True,a_DD,a_AA,False,True,False,Sure different,1,3.141592653589793,150.0,3100.0,8.039157390473237,2022-06-06 06:49:39
420,Main,4,1,35,Letter designer,True,b_AD,b_AB,True,False,True,Sure same,1,3.141592653589793,150.0,3401.0,8.131824785007195,2022-06-06 06:49:39
421,Main,4,1,36,Letter designer,True,h_AA,h_DD,False,True,False,Sure different,1,3.141592653589793,150.0,3582.0,8.183676582620658,2022-06-06 06:49:39
422,Main,4,1,37,Letter designer,True,t_AD,t_BD,True,False,False,Sure different,1,3.141592653589793,150.0,3902.0,8.269244521183056,2022-06-06 06:49:39
423,Main,4,1,38,Letter designer,True,a_AB,a_AD,True,False,True,Probably same,1,3.141592653589793,150.0,4750.0,8.465899897028686,2022-06-06 06:49:39
424,Main,4,1,39,Letter designer,True,p_AA,p_AA,False,True,True,Sure same,1,3.141592653589793,150.0,3650.0,8.202482446576537,2022-06-06 06:49:39
425,Main,4,1,40,Letter designer,True,z_AD,z_BC,True,True,False,Sure different,1,3.141592653589793,150.0,3234.0,8.081475040137052,2022-06-06 06:49:39
426,Main,4,1,41,Letter designer,True,c_AA,c_AA,False,True,True,Sure same,1,3.141592653589793,150.0,3683.0,8.211482916445066,2022-06-06 06:49:39
427,Main,4,1,42,Letter designer,True,j_AD,j_AD,True,True,True,Sure same,1,3.141592653589793,150.0,3101.0,8.03947991910045,2022-06-06 06:49:39
428,Main,4,1,43,Letter designer,True,b_AD,b_BC,True,True,False,Sure different,1,3.141592653589793,150.0,3366.0,8.121480374750751,2022-06-06 06:49:39
429,Main,4,1,44,Letter designer,True,r_AD,r_AD,True,True,True,Sure same,1,3.141592653589793,150.0,3884.0,8.264620829411216,2022-06-06 06:49:39
430,Main,4,1,45,Letter designer,True,q_AD,q_BC,True,True,False,Sure different,1,3.141592653589793,150.0,3366.0,8.121480374750751,2022-06-06 06:49:39
431,Main,4,1,46,Letter designer,True,h_AD,h_BD,True,False,False,Sure different,1,3.141592653589793,150.0,3518.0,8.165647925297504,2022-06-06 06:49:39
432,Main,4,1,47,Letter designer,True,b_AA,b_AA,False,True,True,Sure same,1,3.141592653589793,150.0,3550.0,8.174702882469461,2022-06-06 06:49:39
433,Main,4,1,48,Letter designer,True,e_AB,e_AD,True,False,True,Sure same,1,3.141592653589793,150.0,4100.0,8.318742252692399,2022-06-06 06:49:39
434,Main,4,1,49,Letter designer,True,q_AB,q_AD,True,False,True,Probably same,1,3.141592653589793,150.0,4137.0,8.327726166461412,2022-06-06 06:49:39
435,Main,4,1,50,Letter designer,True,a_BC,a_AD,True,True,False,Sure same,0,0.0,150.0,3214.0,8.075271546297458,2022-06-06 06:49:39
436,Main,4,1,51,Letter designer,True,n_AA,n_AA,False,True,True,Sure different,0,0.0,150.0,3483.0,8.155649270366002,2022-06-06 06:49:39
437,Main,4,1,52,Letter designer,True,q_AD,q_AD,True,True,True,Probably same,1,3.141592653589793,150.0,4134.0,8.327000740241713,2022-06-06 06:49:39
438,Main,4,1,53,Letter designer,True,h_AB,h_AD,True,False,True,Probably same,1,3.141592653589793,150.0,4251.0,8.35490952835879,2022-06-06 06:49:39
439,Main,4,1,54,Letter designer,True,n_BC,n_AD,True,True,False,Probably same,0,0.0,150.0,4734.0,8.46252579007393,2022-06-06 06:49:39
440,Main,4,1,55,Letter designer,True,h_AA,h_AA,False,True,True,Sure same,1,3.141592653589793,150.0,3119.0,8.045267716607803,2022-06-06 06:49:39
441,Main,4,1,56,Letter designer,True,z_AD,z_AB,True,False,True,Sure same,1,3.141592653589793,150.0,3047.0,8.021912778985708,2022-06-06 06:49:39
442,Main,4,1,57,Letter designer,True,a_AD,a_AD,True,True,True,Sure same,1,3.141592653589793,150.0,3684.0,8.211754397375197,2022-06-06 06:49:39
443,Main,4,1,58,Letter designer,True,r_DD,r_AA,False,True,False,Sure different,1,3.141592653589793,150.0,3233.0,8.081165777725433,2022-06-06 06:49:39
444,Main,4,1,59,Letter designer,True,p_AD,p_BC,True,True,False,Sure different,1,3.141592653589793,150.0,3101.0,8.03947991910045,2022-06-06 06:49:39
445,Main,4,1,60,Letter designer,True,z_AA,z_AA,False,True,True,Sure same,1,3.141592653589793,150.0,3233.0,8.081165777725433,2022-06-06 06:49:39
446,Main,4,1,61,Letter designer,True,r_AD,r_BC,True,True,False,Sure different,1,3.141592653589793,150.0,3117.0,8.044626279767337,2022-06-06 06:49:39
447,Main,4,1,62,Letter designer,True,j_AD,j_BC,True,True,False,Sure different,1,3.141592653589793,150.0,2967.0,7.995306620290822,2022-06-06 06:49:39
448,Main,4,1,63,Letter designer,True,b_AD,b_BD,True,False,False,Sure different,1,3.141592653589793,150.0,3000.0,8.006367567650246,2022-06-06 06:49:39
449,Main,4,1,64,Letter designer,True,n_AA,n_DD,False,True,False,Sure different,1,3.141592653589793,150.0,3034.0,8.017637159908478,2022-06-06 06:49:39
450,Main,4,1,65,Letter designer,True,c_DD,c_AA,False,True,False,Sure different,1,3.141592653589793,150.0,3217.0,8.076204527239026,2022-06-06 06:49:39
451,Main,4,1,66,Letter designer,True,a_AA,a_AA,False,True,True,Probably same,1,3.141592653589793,150.0,3501.0,8.160803920954665,2022-06-06 06:49:39
452,Main,4,1,67,Letter designer,True,n_AD,n_AD,True,True,True,Probably same,1,3.141592653589793,150.0,3316.0,8.106514516255185,2022-06-06 06:49:39
453,Main,4,1,68,Letter designer,True,p_AD,p_AD,True,True,True,Probably same,1,3.141592653589793,150.0,3351.0,8.11701408773731,2022-06-06 06:49:39
454,Main,4,1,69,Letter designer,True,c_AD,c_AD,True,True,True,Probably same,1,3.141592653589793,150.0,4000.0,8.294049640102028,2022-06-06 06:49:39
455,Main,4,1,70,Letter designer,True,z_AD,z_BD,True,False,False,Sure different,1,3.141592653589793,150.0,3383.0,8.12651816878071,2022-06-06 06:49:39
456,Main,4,1,71,Letter designer,True,c_AD,c_BC,True,True,False,Sure same,0,0.0,150.0,4401.0,8.38958706681109,2022-06-06 06:49:39
457,Main,4,1,72,Letter designer,True,j_AA,j_AA,False,True,True,Sure different,0,0.0,150.0,3566.0,8.179199798423086,2022-06-06 06:49:39
458,Main,4,0,19,Letter designer,True,u_AD,u_BD,True,False,False,Sure different,1,3.141592653589793,725.0,3983.0,8.289790583181643,2022-06-06 06:49:39
459,Main,4,0,20,Letter designer,True,i_AD,i_AD,True,True,True,Sure same,1,3.141592653589793,800.0,5037.0,8.52456594574565,2022-06-06 06:49:39
460,Main,5,0,1,Typographer,True,d_AD,d_BC,True,True,False,Probably different,1,3.141592653589793,800.0,8956.0,9.100078977718645,2022-06-05 22:53:26
461,Main,5,0,2,Typographer,True,u_AA,u_DD,False,True,False,Sure different,1,3.141592653589793,800.0,4158.0,8.332789468417959,2022-06-05 22:53:26
462,Main,5,0,3,Typographer,True,d_AA,d_DD,False,True,False,Sure different,1,3.141592653589793,800.0,4259.0,8.356789669923213,2022-06-05 22:53:26
463,Main,5,0,4,Typographer,True,d_AA,d_AA,False,True,True,Sure same,1,3.141592653589793,725.0,4746.0,8.465057436995709,2022-06-05 22:53:26
464,Main,5,0,5,Typographer,True,i_DD,i_AA,False,True,False,Sure different,1,3.141592653589793,650.0,3610.0,8.191463051326927,2022-06-05 22:53:26
465,Main,5,0,6,Typographer,True,d_BC,d_AD,True,True,False,Sure different,1,3.141592653589793,575.0,3958.0,8.28349412616251,2022-06-05 22:53:26
466,Main,5,0,7,Typographer,True,i_BD,i_AD,True,False,False,Sure different,1,3.141592653589793,500.0,3237.0,8.082402253926244,2022-06-05 22:53:26
467,Main,5,0,8,Typographer,True,d_BD,d_AD,True,False,False,Sure different,1,3.141592653589793,425.0,3131.0,8.049107721326406,2022-06-05 22:53:26
468,Main,5,0,9,Typographer,True,u_AD,u_AB,True,False,True,Probably same,1,3.141592653589793,350.0,4720.0,8.459564078579602,2022-06-05 22:53:26
469,Main,5,0,10,Typographer,True,d_AB,d_AD,True,False,True,Probably same,1,3.141592653589793,275.0,3146.0,8.053887083618223,2022-06-05 22:53:26
470,Main,5,0,11,Typographer,True,u_BC,u_AD,True,True,False,Sure different,1,3.141592653589793,200.0,3248.0,8.085794701281568,2022-06-05 22:53:26
471,Main,5,0,12,Typographer,True,u_AA,u_AA,False,True,True,Sure same,1,3.141592653589793,200.0,3487.0,8.156797046675651,2022-06-05 22:53:26
472,Main,5,0,13,Typographer,True,i_BC,i_AD,True,True,False,Sure different,1,3.141592653589793,275.0,3052.0,8.023552392404348,2022-06-05 22:53:26
473,Main,5,0,14,Typographer,True,i_AB,i_AD,True,False,True,Sure same,1,3.141592653589793,350.0,3432.0,8.140898460607852,2022-06-05 22:53:26
474,Main,5,0,15,Typographer,True,u_AD,u_AD,True,True,True,Sure same,1,3.141592653589793,425.0,3251.0,8.086717920303906,2022-06-05 22:53:26
475,Main,5,0,16,Typographer,True,u_AA,u_DD,False,True,False,Sure different,1,3.141592653589793,500.0,3385.0,8.127109185346375,2022-06-05 22:53:26
476,Main,5,0,17,Typographer,True,d_AD,d_AD,True,True,True,Sure same,1,3.141592653589793,575.0,3748.0,8.228977643358313,2022-06-05 22:53:26
477,Main,5,0,18,Typographer,True,i_AA,i_AA,False,True,True,Probably different,0,0.0,650.0,4961.0,8.509362612301048,2022-06-05 22:53:26
478,Main,5,1,1,Typographer,True,a_AB,a_AD,True,False,True,Sure same,1,3.141592653589793,266.7,9161.0,9.122710622015209,2022-06-05 22:53:26
479,Main,5,1,2,Typographer,True,c_BC,c_AD,True,True,False,Sure different,1,3.141592653589793,266.7,3182.0,8.065265208897733,2022-06-05 22:53:26
480,Main,5,1,3,Typographer,True,n_AD,n_AD,True,True,True,Probably same,1,3.141592653589793,266.7,4308.0,8.36822903827628,2022-06-05 22:53:26
481,Main,5,1,4,Typographer,True,n_AD,n_AB,True,False,True,Probably different,0,0.0,266.7,4101.0,8.31898612539206,2022-06-05 22:53:26
482,Main,5,1,5,Typographer,True,b_AD,b_BC,True,True,False,Sure different,1,3.141592653589793,266.7,3026.0,8.014996894348302,2022-06-05 22:53:26
483,Main,5,1,6,Typographer,True,h_AD,h_BC,True,True,False,Sure different,1,3.141592653589793,266.7,2982.0,8.000349495324684,2022-06-05 22:53:26
484,Main,5,1,7,Typographer,True,b_AA,b_AA,False,True,True,Sure same,1,3.141592653589793,266.7,3354.0,8.117908942383155,2022-06-05 22:53:26
485,Main,5,1,8,Typographer,True,p_AD,p_BC,True,True,False,Sure different,1,3.141592653589793,266.7,3329.0,8.110427237575024,2022-06-05 22:53:26
486,Main,5,1,9,Typographer,True,c_AA,c_DD,False,True,False,Sure different,1,3.141592653589793,266.7,2954.0,7.9909154630913255,2022-06-05 22:53:26
487,Main,5,1,10,Typographer,True,q_AD,q_AD,True,True,True,Sure same,1,3.141592653589793,266.7,3884.0,8.264620829411216,2022-06-05 22:53:26
488,Main,5,1,11,Typographer,True,z_AA,z_AA,False,True,True,Sure same,1,3.141592653589793,266.7,4021.0,8.299285906897275,2022-06-05 22:53:26
489,Main,5,1,12,Typographer,True,n_AA,n_AA,False,True,True,Sure different,0,0.0,266.7,3348.0,8.116118431609365,2022-06-05 22:53:26
490,Main,5,1,13,Typographer,True,q_AA,q_AA,False,True,True,Sure same,1,3.141592653589793,266.7,3251.0,8.086717920303906,2022-06-05 22:53:26
491,Main,5,1,14,Typographer,True,r_BC,r_AD,True,True,False,Sure different,1,3.141592653589793,266.7,3084.0,8.03398273468322,2022-06-05 22:53:26
492,Main,5,1,15,Typographer,True,z_AD,z_AD,True,True,True,Sure same,1,3.141592653589793,266.7,3295.0,8.100161446936607,2022-06-05 22:53:26
493,Main,5,1,16,Typographer,True,c_AA,c_AA,False,True,True,Sure same,1,3.141592653589793,266.7,3566.0,8.179199798423086,2022-06-05 22:53:26
494,Main,5,1,17,Typographer,True,a_AD,a_AD,True,True,True,Sure same,1,3.141592653589793,266.7,2985.0,8.001355025826703,2022-06-05 22:53:26
495,Main,5,1,18,Typographer,True,e_AB,e_AD,True,False,True,Sure same,1,3.141592653589793,266.7,3385.0,8.127109185346375,2022-06-05 22:53:26
496,Main,5,1,19,Typographer,True,b_BD,b_AD,True,False,False,Sure different,1,3.141592653589793,266.7,2816.0,7.943072717277933,2022-06-05 22:53:26
497,Main,5,1,20,Typographer,True,z_AD,z_BC,True,True,False,Sure different,1,3.141592653589793,266.7,3138.0,8.051340933292979,2022-06-05 22:53:26
498,Main,5,1,21,Typographer,True,a_BD,a_AD,True,False,False,Sure different,1,3.141592653589793,266.7,3739.0,8.226573474977114,2022-06-05 22:53:26
499,Main,5,1,22,Typographer,True,h_AD,h_AD,True,True,True,Sure same,1,3.141592653589793,266.7,3745.0,8.22817689595132,2022-06-05 22:53:26
500,Main,5,1,23,Typographer,True,h_BD,h_AD,True,False,False,Sure different,1,3.141592653589793,266.7,2803.0,7.938445551164788,2022-06-05 22:53:26
501,Main,5,1,24,Typographer,True,e_AD,e_BD,True,False,False,Sure different,1,3.141592653589793,266.7,3480.0,8.15478757276852,2022-06-05 22:53:26
502,Main,5,1,25,Typographer,True,a_AD,a_BC,True,True,False,Sure same,0,0.0,266.7,3401.0,8.131824785007195,2022-06-05 22:53:26
503,Main,5,1,26,Typographer,True,p_AD,p_AD,True,True,True,Sure same,1,3.141592653589793,266.7,3915.0,8.272570608424903,2022-06-05 22:53:26
504,Main,5,1,27,Typographer,True,a_AA,a_DD,False,True,False,Sure different,1,3.141592653589793,266.7,2988.0,8.002359546252707,2022-06-05 22:53:26
505,Main,5,1,28,Typographer,True,p_AD,p_AB,True,False,True,Sure same,1,3.141592653589793,266.7,3627.0,8.196161139282902,2022-06-05 22:53:26
506,Main,5,1,29,Typographer,True,c_AB,c_AD,True,False,True,Sure different,0,0.0,266.7,3327.0,8.109826276018477,2022-06-05 22:53:26
507,Main,5,1,30,Typographer,True,b_AA,b_DD,False,True,False,Sure different,1,3.141592653589793,266.7,2831.0,7.9483852851118995,2022-06-05 22:53:26
508,Main,5,1,31,Typographer,True,e_AD,e_BC,True,True,False,Sure same,0,0.0,266.7,3514.0,8.164510268747042,2022-06-05 22:53:26
509,Main,5,1,32,Typographer,True,j_BC,j_AD,True,True,False,Sure different,1,3.141592653589793,266.7,2830.0,7.948031990637284,2022-06-05 22:53:26
510,Main,5,1,33,Typographer,True,e_AA,e_AA,False,True,True,Sure same,1,3.141592653589793,266.7,3176.0,8.063377822367027,2022-06-05 22:53:26
511,Main,5,1,34,Typographer,True,h_AA,h_AA,False,True,True,Sure same,1,3.141592653589793,266.7,3196.0,8.069655306886165,2022-06-05 22:53:26
512,Main,5,1,35,Typographer,True,q_BC,q_AD,True,True,False,Sure same,0,0.0,266.7,3019.0,8.012680929706839,2022-06-05 22:53:26
513,Main,5,1,36,Typographer,True,t_AA,t_DD,False,True,False,Sure different,1,3.141592653589793,266.7,2971.0,7.9966538754626075,2022-06-05 22:53:26
514,Main,5,1,37,Typographer,True,n_AA,n_DD,False,True,False,Sure different,1,3.141592653589793,266.7,3795.0,8.24143968982973,2022-06-05 22:53:26
515,Main,5,1,38,Typographer,True,a_AA,a_AA,False,True,True,Sure same,1,3.141592653589793,266.7,3164.0,8.059592328887545,2022-06-05 22:53:26
516,Main,5,1,39,Typographer,True,j_AD,j_AB,True,False,True,Sure same,1,3.141592653589793,266.7,3206.0,8.072779333169498,2022-06-05 22:53:26
517,Main,5,1,40,Typographer,True,b_AD,b_AD,True,True,True,Sure same,1,3.141592653589793,266.7,3433.0,8.141189793457691,2022-06-05 22:53:26
518,Main,5,1,41,Typographer,True,q_BD,q_AD,True,False,False,Sure same,0,0.0,266.7,3121.0,8.045908742270779,2022-06-05 22:53:26
519,Main,5,1,42,Typographer,True,p_AA,p_AA,False,True,True,Sure same,1,3.141592653589793,266.7,3079.0,8.0323601479245,2022-06-05 22:53:26
520,Main,5,1,43,Typographer,True,p_AA,p_DD,False,True,False,Sure different,1,3.141592653589793,266.7,2960.0,7.992944547318106,2022-06-05 22:53:26
521,Main,5,1,44,Typographer,True,c_BD,c_AD,True,False,False,Sure same,0,0.0,266.7,3510.0,8.163371316459912,2022-06-05 22:53:26
522,Main,5,1,45,Typographer,True,q_DD,q_AA,False,True,False,Sure different,1,3.141592653589793,266.7,3182.0,8.065265208897733,2022-06-05 22:53:26
523,Main,5,1,46,Typographer,True,e_AD,e_AD,True,True,True,Sure same,1,3.141592653589793,266.7,3154.0,8.056426767522984,2022-06-05 22:53:26
524,Main,5,1,47,Typographer,True,r_AD,r_AD,True,True,True,Sure same,1,3.141592653589793,266.7,3294.0,8.099857910737585,2022-06-05 22:53:26
525,Main,5,1,48,Typographer,True,c_AD,c_AD,True,True,True,Sure same,1,3.141592653589793,266.7,2899.0,7.972121128921655,2022-06-05 22:53:26
526,Main,5,1,49,Typographer,True,z_AD,z_BD,True,False,False,Sure different,1,3.141592653589793,266.7,2957.0,7.9919305198524775,2022-06-05 22:53:26
527,Main,5,1,50,Typographer,True,q_AB,q_AD,True,False,True,Sure same,1,3.141592653589793,266.7,3021.0,8.013343181386672,2022-06-05 22:53:26
528,Main,5,1,51,Typographer,True,t_AD,t_BC,True,True,False,Sure same,0,0.0,266.7,3305.0,8.103191752285786,2022-06-05 22:53:26
529,Main,5,1,52,Typographer,True,j_AD,j_BD,True,False,False,Sure different,1,3.141592653589793,266.7,2920.0,7.979338895262328,2022-06-05 22:53:26
530,Main,5,1,53,Typographer,True,z_DD,z_AA,False,True,False,Sure different,1,3.141592653589793,266.7,3394.0,8.129764445794171,2022-06-05 22:53:26
531,Main,5,1,54,Typographer,True,j_AA,j_AA,False,True,True,Sure same,1,3.141592653589793,266.7,3423.0,8.138272638530186,2022-06-05 22:53:26
532,Main,5,1,55,Typographer,True,n_AD,n_BC,True,True,False,Sure different,1,3.141592653589793,266.7,3104.0,8.04044688130311,2022-06-05 22:53:26
533,Main,5,1,56,Typographer,True,j_AD,j_AD,True,True,True,Sure same,1,3.141592653589793,266.7,3737.0,8.226038429485484,2022-06-05 22:53:26
534,Main,5,1,57,Typographer,True,t_AD,t_AD,True,True,True,Sure different,0,0.0,266.7,3493.0,8.158516244806831,2022-06-05 22:53:26
535,Main,5,1,58,Typographer,True,r_DD,r_AA,False,True,False,Sure different,1,3.141592653589793,266.7,2953.0,7.990576881743923,2022-06-05 22:53:26
536,Main,5,1,59,Typographer,True,t_BD,t_AD,True,False,False,Sure different,1,3.141592653589793,266.7,3432.0,8.140898460607852,2022-06-05 22:53:26
537,Main,5,1,60,Typographer,True,t_AA,t_AA,False,True,True,Sure same,1,3.141592653589793,266.7,3268.0,8.091933455979893,2022-06-05 22:53:26
538,Main,5,1,61,Typographer,True,t_AB,t_AD,True,False,True,Sure same,1,3.141592653589793,266.7,3010.0,8.009695357742922,2022-06-05 22:53:26
539,Main,5,1,62,Typographer,True,r_AA,r_AA,False,True,True,Sure same,1,3.141592653589793,266.7,3073.0,8.030409562130485,2022-06-05 22:53:26
540,Main,5,1,63,Typographer,True,j_DD,j_AA,False,True,False,Sure different,1,3.141592653589793,266.7,2818.0,7.943782692458625,2022-06-05 22:53:26
541,Main,5,1,64,Typographer,True,n_AD,n_BD,True,False,False,Sure different,1,3.141592653589793,266.7,3144.0,8.053251153549096,2022-06-05 22:53:26
542,Main,5,1,65,Typographer,True,r_BD,r_AD,True,False,False,Sure different,1,3.141592653589793,266.7,2895.0,7.970740390007095,2022-06-05 22:53:26
543,Main,5,1,66,Typographer,True,p_AD,p_BD,True,False,False,Sure different,1,3.141592653589793,266.7,2795.0,7.9355873855892,2022-06-05 22:53:26
544,Main,5,1,67,Typographer,True,r_AB,r_AD,True,False,True,Sure same,1,3.141592653589793,266.7,3770.0,8.234830280442056,2022-06-05 22:53:26
545,Main,5,1,68,Typographer,True,z_AD,z_AB,True,False,True,Sure same,1,3.141592653589793,266.7,3146.0,8.053887083618223,2022-06-05 22:53:26
546,Main,5,1,69,Typographer,True,h_AA,h_DD,False,True,False,Sure different,1,3.141592653589793,266.7,2858.0,7.957877358489813,2022-06-05 22:53:26
547,Main,5,1,70,Typographer,True,b_AB,b_AD,True,False,True,Probably different,0,0.0,266.7,3624.0,8.19533366716287,2022-06-05 22:53:26
548,Main,5,1,71,Typographer,True,h_AD,h_AB,True,False,True,Sure same,1,3.141592653589793,266.7,3639.0,8.19946419761216,2022-06-05 22:53:26
549,Main,5,1,72,Typographer,True,e_AA,e_DD,False,True,False,Sure different,1,3.141592653589793,266.7,3432.0,8.140898460607852,2022-06-05 22:53:26
550,Main,5,0,19,Typographer,True,u_BD,u_AD,True,False,False,Sure same,0,0.0,725.0,4306.0,8.367764677924308,2022-06-05 22:53:26
551,Main,5,0,20,Typographer,True,i_AD,i_AD,True,True,True,Sure different,0,0.0,800.0,3887.0,8.265392930852224,2022-06-05 22:53:26
552,Main,6,0,1,Other designer,True,d_AD,d_BC,True,True,False,Probably same,0,0.0,800.0,31829.0,10.368133102880323,2022-06-05 22:26:55
553,Main,6,0,2,Other designer,True,u_DD,u_AA,False,True,False,Sure different,1,3.141592653589793,800.0,6493.0,8.778479952508487,2022-06-05 22:26:55
554,Main,6,0,3,Other designer,True,d_AA,d_DD,False,True,False,Sure different,1,3.141592653589793,800.0,4365.0,8.381373468273702,2022-06-05 22:26:55
555,Main,6,0,4,Other designer,True,d_AA,d_AA,False,True,True,Sure same,1,3.141592653589793,725.0,4396.0,8.388450315523512,2022-06-05 22:26:55
556,Main,6,0,5,Other designer,True,i_DD,i_AA,False,True,False,Sure different,1,3.141592653589793,650.0,4525.0,8.417372856134026,2022-06-05 22:26:55
557,Main,6,0,6,Other designer,True,d_BC,d_AD,True,True,False,Sure different,1,3.141592653589793,575.0,5513.0,8.614864218589684,2022-06-05 22:26:55
558,Main,6,0,7,Other designer,True,i_AD,i_BD,True,False,False,Probably same,0,0.0,500.0,5216.0,8.559486103606488,2022-06-05 22:26:55
559,Main,6,0,8,Other designer,True,d_AD,d_BD,True,False,False,Sure different,1,3.141592653589793,425.0,3715.0,8.220133957151859,2022-06-05 22:26:55
560,Main,6,0,9,Other designer,True,u_AD,u_AB,True,False,True,Sure different,0,0.0,350.0,3951.0,8.281723990411392,2022-06-05 22:26:55
561,Main,6,0,10,Other designer,True,d_AD,d_AB,True,False,True,Sure different,0,0.0,275.0,3666.0,8.20685642839965,2022-06-05 22:26:55
562,Main,6,0,11,Other designer,True,u_AD,u_BC,True,True,False,Probably different,1,3.141592653589793,200.0,6720.0,8.812843433517195,2022-06-05 22:26:55
563,Main,6,0,12,Other designer,True,u_AA,u_AA,False,True,True,Sure same,1,3.141592653589793,200.0,6716.0,8.812248018197431,2022-06-05 22:26:55
564,Main,6,0,13,Other designer,True,i_AD,i_BC,True,True,False,Sure different,1,3.141592653589793,275.0,3264.0,8.090708716083997,2022-06-05 22:26:55
565,Main,6,0,14,Other designer,True,i_AD,i_AB,True,False,True,Sure different,0,0.0,350.0,4989.0,8.514990767861038,2022-06-05 22:26:55
566,Main,6,0,15,Other designer,True,u_AD,u_AD,True,True,True,Sure same,1,3.141592653589793,425.0,4252.0,8.355144739461839,2022-06-05 22:26:55
567,Main,6,0,16,Other designer,True,u_DD,u_AA,False,True,False,Sure different,1,3.141592653589793,500.0,3461.0,8.149312843635345,2022-06-05 22:26:55
568,Main,6,0,17,Other designer,True,d_AD,d_AD,True,True,True,Sure same,1,3.141592653589793,575.0,6733.0,8.814776088545281,2022-06-05 22:26:55
569,Main,6,0,18,Other designer,True,i_AA,i_AA,False,True,True,Sure same,1,3.141592653589793,650.0,4351.0,8.37816098272068,2022-06-05 22:26:55
570,Main,6,1,1,Other designer,True,h_BD,h_AD,True,False,False,Sure different,1,3.141592653589793,305.6,5790.0,8.663887570567042,2022-06-05 22:26:55
571,Main,6,1,2,Other designer,True,c_AD,c_BD,True,False,False,Sure different,1,3.141592653589793,305.6,3319.0,8.107418811719974,2022-06-05 22:26:55
572,Main,6,1,3,Other designer,True,j_AD,j_AD,True,True,True,Sure same,1,3.141592653589793,305.6,3460.0,8.14902386805177,2022-06-05 22:26:55
573,Main,6,1,4,Other designer,True,q_AD,q_AB,True,False,True,Probably different,0,0.0,305.6,7116.0,8.870101048785726,2022-06-05 22:26:55
574,Main,6,1,5,Other designer,True,b_BC,b_AD,True,True,False,Sure different,1,3.141592653589793,305.6,3003.0,8.00736706798333,2022-06-05 22:26:55
575,Main,6,1,6,Other designer,True,b_BD,b_AD,True,False,False,Sure different,1,3.141592653589793,305.6,3386.0,8.12740456269308,2022-06-05 22:26:55
576,Main,6,1,7,Other designer,True,z_BD,z_AD,True,False,False,Sure different,1,3.141592653589793,305.6,2900.0,7.9724660159745655,2022-06-05 22:26:55
577,Main,6,1,8,Other designer,True,t_AD,t_BC,True,True,False,Sure different,1,3.141592653589793,305.6,3049.0,8.022568946988255,2022-06-05 22:26:55
578,Main,6,1,9,Other designer,True,b_AD,b_AD,True,True,True,Sure same,1,3.141592653589793,305.6,3069.0,8.029107054619736,2022-06-05 22:26:55
579,Main,6,1,10,Other designer,True,p_AB,p_AD,True,False,True,Sure different,0,0.0,305.6,3204.0,8.07215530818825,2022-06-05 22:26:55
580,Main,6,1,11,Other designer,True,z_AD,z_AD,True,True,True,Sure same,1,3.141592653589793,305.6,3347.0,8.115819701211327,2022-06-05 22:26:55
581,Main,6,1,12,Other designer,True,t_AA,t_AA,False,True,True,Sure different,0,0.0,305.6,3702.0,8.216628493133443,2022-06-05 22:26:55
582,Main,6,1,13,Other designer,True,c_AB,c_AD,True,False,True,Sure different,0,0.0,305.6,3117.0,8.044626279767337,2022-06-05 22:26:55
583,Main,6,1,14,Other designer,True,c_AD,c_BC,True,True,False,Sure different,1,3.141592653589793,305.6,2976.0,7.998335395952982,2022-06-05 22:26:55
584,Main,6,1,15,Other designer,True,q_DD,q_AA,False,True,False,Sure different,1,3.141592653589793,305.6,2956.0,7.991592282068092,2022-06-05 22:26:55
585,Main,6,1,16,Other designer,True,h_DD,h_AA,False,True,False,Sure different,1,3.141592653589793,305.6,2652.0,7.883069351305753,2022-06-05 22:26:55
586,Main,6,1,17,Other designer,True,c_AD,c_AD,True,True,True,Sure same,1,3.141592653589793,305.6,3129.0,8.048468743668883,2022-06-05 22:26:55
587,Main,6,1,18,Other designer,True,z_AA,z_DD,False,True,False,Sure different,1,3.141592653589793,305.6,3083.0,8.03365842788615,2022-06-05 22:26:55
588,Main,6,1,19,Other designer,True,r_AD,r_BD,True,False,False,Sure different,1,3.141592653589793,305.6,2986.0,8.001689978099135,2022-06-05 22:26:55
589,Main,6,1,20,Other designer,True,n_AD,n_BD,True,False,False,Sure different,1,3.141592653589793,305.6,2719.0,7.908019444632471,2022-06-05 22:26:55
590,Main,6,1,21,Other designer,True,e_AB,e_AD,True,False,True,Sure different,0,0.0,305.6,3232.0,8.080856419640986,2022-06-05 22:26:55
591,Main,6,1,22,Other designer,True,e_AD,e_AD,True,True,True,Sure different,0,0.0,305.6,3099.0,8.038834757787749,2022-06-05 22:26:55
592,Main,6,1,23,Other designer,True,t_BD,t_AD,True,False,False,Sure different,1,3.141592653589793,305.6,2804.0,7.938802248154481,2022-06-05 22:26:55
593,Main,6,1,24,Other designer,True,q_BC,q_AD,True,True,False,Sure different,1,3.141592653589793,305.6,2885.0,7.9672801789422,2022-06-05 22:26:55
594,Main,6,1,25,Other designer,True,a_AD,a_AD,True,True,True,Probably same,1,3.141592653589793,305.6,4162.0,8.33375100695358,2022-06-05 22:26:55
595,Main,6,1,26,Other designer,True,c_AA,c_AA,False,True,True,Sure different,0,0.0,305.6,3067.0,8.028455164114252,2022-06-05 22:26:55
596,Main,6,1,27,Other designer,True,n_AD,n_AD,True,True,True,Probably same,1,3.141592653589793,305.6,4165.0,8.334471554600944,2022-06-05 22:26:55
597,Main,6,1,28,Other designer,True,z_AA,z_AA,False,True,True,Sure same,1,3.141592653589793,305.6,4436.0,8.397508348470257,2022-06-05 22:26:55
598,Main,6,1,29,Other designer,True,r_AD,r_BC,True,True,False,Sure different,1,3.141592653589793,305.6,3162.0,8.058960017769417,2022-06-05 22:26:55
599,Main,6,1,30,Other designer,True,t_AB,t_AD,True,False,True,Sure different,0,0.0,305.6,2956.0,7.991592282068092,2022-06-05 22:26:55
600,Main,6,1,31,Other designer,True,a_AD,a_BC,True,True,False,Sure different,1,3.141592653589793,305.6,2947.0,7.988542982737695,2022-06-05 22:26:55
601,Main,6,1,32,Other designer,True,r_AB,r_AD,True,False,True,Sure same,1,3.141592653589793,305.6,3813.0,8.246171559857563,2022-06-05 22:26:55
602,Main,6,1,33,Other designer,True,z_BC,z_AD,True,True,False,Sure different,1,3.141592653589793,305.6,3104.0,8.04044688130311,2022-06-05 22:26:55
603,Main,6,1,34,Other designer,True,n_AA,n_AA,False,True,True,Probably same,1,3.141592653589793,305.6,6004.0,8.700181192753353,2022-06-05 22:26:55
604,Main,6,1,35,Other designer,True,p_AA,p_AA,False,True,True,Sure same,1,3.141592653589793,305.6,12314.0,9.418492105471156,2022-06-05 22:26:55
605,Main,6,1,36,Other designer,True,z_AD,z_AB,True,False,True,Sure same,1,3.141592653589793,305.6,3080.0,8.03268487596762,2022-06-05 22:26:55
606,Main,6,1,37,Other designer,True,p_BD,p_AD,True,False,False,Sure different,1,3.141592653589793,305.6,3121.0,8.045908742270779,2022-06-05 22:26:55
607,Main,6,1,38,Other designer,True,h_AD,h_AD,True,True,True,Sure same,1,3.141592653589793,305.6,3773.0,8.235625719964311,2022-06-05 22:26:55
608,Main,6,1,39,Other designer,True,e_BC,e_AD,True,True,False,Sure same,0,0.0,305.6,3227.0,8.079308192051961,2022-06-05 22:26:55
609,Main,6,1,40,Other designer,True,b_AA,b_AA,False,True,True,Probably different,0,0.0,305.6,4969.0,8.51097389160232,2022-06-05 22:26:55
610,Main,6,1,41,Other designer,True,q_AD,q_AD,True,True,True,Probably same,1,3.141592653589793,305.6,10902.0,9.296701537624227,2022-06-05 22:26:55
611,Main,6,1,42,Other designer,True,a_AA,a_AA,False,True,True,Probably same,1,3.141592653589793,305.6,6528.0,8.783855896643942,2022-06-05 22:26:55
612,Main,6,1,43,Other designer,True,q_AA,q_AA,False,True,True,Sure different,0,0.0,305.6,3320.0,8.107720061910534,2022-06-05 22:26:55
613,Main,6,1,44,Other designer,True,r_AA,r_AA,False,True,True,Sure same,1,3.141592653589793,305.6,3231.0,8.080546965824498,2022-06-05 22:26:55
614,Main,6,1,45,Other designer,True,e_AD,e_BD,True,False,False,Sure same,0,0.0,305.6,3369.0,8.122371243406553,2022-06-05 22:26:55
615,Main,6,1,46,Other designer,True,r_AD,r_AD,True,True,True,Sure same,1,3.141592653589793,305.6,3001.0,8.006700845440367,2022-06-05 22:26:55
616,Main,6,1,47,Other designer,True,p_AA,p_DD,False,True,False,Sure different,1,3.141592653589793,305.6,2928.0,7.982074875081202,2022-06-05 22:26:55
617,Main,6,1,48,Other designer,True,b_AD,b_AB,True,False,True,Sure different,0,0.0,305.6,4340.0,8.375629627094451,2022-06-05 22:26:55
618,Main,6,1,49,Other designer,True,p_AD,p_AD,True,True,True,Sure different,0,0.0,305.6,4343.0,8.376320632534823,2022-06-05 22:26:55
619,Main,6,1,50,Other designer,True,h_BC,h_AD,True,True,False,Sure different,1,3.141592653589793,305.6,2940.0,7.986164860332727,2022-06-05 22:26:55
620,Main,6,1,51,Other designer,True,a_AA,a_DD,False,True,False,Sure different,1,3.141592653589793,305.6,2785.0,7.932003152361385,2022-06-05 22:26:55
621,Main,6,1,52,Other designer,True,t_AA,t_DD,False,True,False,Sure different,1,3.141592653589793,305.6,2803.0,7.938445551164788,2022-06-05 22:26:55
622,Main,6,1,53,Other designer,True,c_AA,c_DD,False,True,False,Sure different,1,3.141592653589793,305.6,2727.0,7.910957382845589,2022-06-05 22:26:55
623,Main,6,1,54,Other designer,True,q_AD,q_BD,True,False,False,Probably same,0,0.0,305.6,3648.0,8.201934351194222,2022-06-05 22:26:55
624,Main,6,1,55,Other designer,True,b_AA,b_DD,False,True,False,Sure different,1,3.141592653589793,305.6,2862.0,7.959275960116396,2022-06-05 22:26:55
625,Main,6,1,56,Other designer,True,n_AA,n_DD,False,True,False,Sure different,1,3.141592653589793,305.6,2725.0,7.9102237070973445,2022-06-05 22:26:55
626,Main,6,1,57,Other designer,True,n_AD,n_BC,True,True,False,Sure different,1,3.141592653589793,305.6,2736.0,7.914252278742441,2022-06-05 22:26:55
627,Main,6,1,58,Other designer,True,e_AA,e_AA,False,True,True,Probably same,1,3.141592653589793,305.6,8460.0,9.04310445260027,2022-06-05 22:26:55
628,Main,6,1,59,Other designer,True,j_BD,j_AD,True,False,False,Sure different,1,3.141592653589793,305.6,4089.0,8.316055720364643,2022-06-05 22:26:55
629,Main,6,1,60,Other designer,True,j_AA,j_AA,False,True,True,Sure same,1,3.141592653589793,305.6,4576.0,8.428580533059634,2022-06-05 22:26:55
630,Main,6,1,61,Other designer,True,h_AA,h_AA,False,True,True,Sure different,0,0.0,305.6,3841.0,8.253488028345904,2022-06-05 22:26:55
631,Main,6,1,62,Other designer,True,j_AB,j_AD,True,False,True,Sure same,1,3.141592653589793,305.6,4365.0,8.381373468273702,2022-06-05 22:26:55
632,Main,6,1,63,Other designer,True,h_AB,h_AD,True,False,True,Sure same,1,3.141592653589793,305.6,4629.0,8.44009614103127,2022-06-05 22:26:55
633,Main,6,1,64,Other designer,True,e_AA,e_DD,False,True,False,Sure different,1,3.141592653589793,305.6,2955.0,7.991253929840199,2022-06-05 22:26:55
634,Main,6,1,65,Other designer,True,j_DD,j_AA,False,True,False,Sure different,1,3.141592653589793,305.6,2785.0,7.932003152361385,2022-06-05 22:26:55
635,Main,6,1,66,Other designer,True,j_BC,j_AD,True,True,False,Sure different,1,3.141592653589793,305.6,2864.0,7.9599745280805365,2022-06-05 22:26:55
636,Main,6,1,67,Other designer,True,t_AD,t_AD,True,True,True,Sure different,0,0.0,305.6,2769.0,7.926241523170962,2022-06-05 22:26:55
637,Main,6,1,68,Other designer,True,p_BC,p_AD,True,True,False,Sure different,1,3.141592653589793,305.6,2750.0,7.919356190660617,2022-06-05 22:26:55
638,Main,6,1,69,Other designer,True,a_BD,a_AD,True,False,False,Sure different,1,3.141592653589793,305.6,2842.0,7.952263308657046,2022-06-05 22:26:55
639,Main,6,1,70,Other designer,True,r_AA,r_DD,False,True,False,Sure different,1,3.141592653589793,305.6,2657.0,7.884952945759814,2022-06-05 22:26:55
640,Main,6,1,71,Other designer,True,a_AD,a_AB,True,False,True,Sure same,1,3.141592653589793,305.6,2855.0,7.956827122090111,2022-06-05 22:26:55
641,Main,6,1,72,Other designer,True,n_AB,n_AD,True,False,True,Probably same,1,3.141592653589793,305.6,3564.0,8.1786387885907,2022-06-05 22:26:55
642,Main,6,0,19,Other designer,True,u_BD,u_AD,True,False,False,Sure different,1,3.141592653589793,725.0,3983.0,8.289790583181643,2022-06-05 22:26:55
643,Main,6,0,20,Other designer,True,i_AD,i_AD,True,True,True,Sure same,1,3.141592653589793,800.0,4417.0,8.393216011596527,2022-06-05 22:26:55
644,Main,7,0,1,Graphic designer,True,d_BC,d_AD,True,True,False,Probably different,1,3.141592653589793,800.0,30590.0,10.328428437144948,2022-06-05 21:21:07
645,Main,7,0,2,Graphic designer,True,u_DD,u_AA,False,True,False,Sure different,1,3.141592653589793,800.0,11070.0,9.311994025702683,2022-06-05 21:21:07
646,Main,7,0,3,Graphic designer,True,d_AA,d_DD,False,True,False,Sure different,1,3.141592653589793,800.0,4828.0,8.482187582217422,2022-06-05 21:21:07
647,Main,7,0,4,Graphic designer,True,d_AA,d_AA,False,True,True,Sure different,0,0.0,725.0,4521.0,8.416488487294606,2022-06-05 21:21:07
648,Main,7,0,5,Graphic designer,True,i_DD,i_AA,False,True,False,Sure different,1,3.141592653589793,650.0,53550.0,10.888371075875895,2022-06-05 21:21:07
649,Main,7,0,6,Graphic designer,True,d_BC,d_AD,True,True,False,Sure different,1,3.141592653589793,575.0,4849.0,8.486527777105353,2022-06-05 21:21:07
650,Main,7,0,7,Graphic designer,True,i_BD,i_AD,True,False,False,Sure different,1,3.141592653589793,500.0,3183.0,8.065579427282092,2022-06-05 21:21:07
651,Main,7,0,8,Graphic designer,True,d_AD,d_BD,True,False,False,Sure different,1,3.141592653589793,425.0,3927.0,8.27563105457801,2022-06-05 21:21:07
652,Main,7,0,9,Graphic designer,True,u_AD,u_AB,True,False,True,Sure different,0,0.0,350.0,2857.0,7.957527402230773,2022-06-05 21:21:07
653,Main,7,0,10,Graphic designer,True,d_AB,d_AD,True,False,True,Probably same,1,3.141592653589793,275.0,14826.0,9.604137675216665,2022-06-05 21:21:07
654,Main,7,0,11,Graphic designer,True,u_BC,u_AD,True,True,False,Sure different,1,3.141592653589793,200.0,3613.0,8.19229373114764,2022-06-05 21:21:07
655,Main,7,0,12,Graphic designer,True,u_AA,u_AA,False,True,True,Sure same,1,3.141592653589793,200.0,4478.0,8.4069317971587,2022-06-05 21:21:07
656,Main,7,0,13,Graphic designer,True,i_BC,i_AD,True,True,False,Sure different,1,3.141592653589793,275.0,3476.0,8.153637486385282,2022-06-05 21:21:07
657,Main,7,0,14,Graphic designer,True,i_AD,i_AB,True,False,True,Probably different,0,0.0,350.0,4623.0,8.438799123988225,2022-06-05 21:21:07
658,Main,7,0,15,Graphic designer,True,u_AD,u_AD,True,True,True,Probably same,1,3.141592653589793,425.0,5367.0,8.588024372176829,2022-06-05 21:21:07
659,Main,7,0,16,Graphic designer,True,u_AA,u_DD,False,True,False,Sure different,1,3.141592653589793,500.0,5321.0,8.579416534596369,2022-06-05 21:21:07
660,Main,7,0,17,Graphic designer,True,d_AD,d_AD,True,True,True,Sure same,1,3.141592653589793,575.0,6907.0,8.840290669088972,2022-06-05 21:21:07
661,Main,7,0,18,Graphic designer,True,i_AA,i_AA,False,True,True,Probably same,1,3.141592653589793,650.0,4130.0,8.326032685955079,2022-06-05 21:21:07
662,Main,7,1,1,Graphic designer,True,n_AA,n_AA,False,True,True,Probably same,1,3.141592653589793,266.7,6013.0,8.70167907103957,2022-06-05 21:21:07
663,Main,7,1,2,Graphic designer,True,z_BC,z_AD,True,True,False,Sure different,1,3.141592653589793,266.7,3117.0,8.044626279767337,2022-06-05 21:21:07
664,Main,7,1,3,Graphic designer,True,r_DD,r_AA,False,True,False,Sure different,1,3.141592653589793,266.7,2788.0,7.933079771880415,2022-06-05 21:21:07
665,Main,7,1,4,Graphic designer,True,b_AA,b_AA,False,True,True,Probably same,1,3.141592653589793,266.7,3522.0,8.166784289056151,2022-06-05 21:21:07
666,Main,7,1,5,Graphic designer,True,q_AD,q_AD,True,True,True,Sure different,0,0.0,266.7,3004.0,8.007700012884026,2022-06-05 21:21:07
667,Main,7,1,6,Graphic designer,True,r_AD,r_AB,True,False,True,Sure same,1,3.141592653589793,266.7,4298.0,8.365905077202456,2022-06-05 21:21:07
668,Main,7,1,7,Graphic designer,True,q_DD,q_AA,False,True,False,Sure different,1,3.141592653589793,266.7,3105.0,8.040768994367578,2022-06-05 21:21:07
669,Main,7,1,8,Graphic designer,True,n_AD,n_AD,True,True,True,Probably different,0,0.0,266.7,4276.0,8.360773272144936,2022-06-05 21:21:07
670,Main,7,1,9,Graphic designer,True,q_AB,q_AD,True,False,True,Probably same,1,3.141592653589793,266.7,4309.0,8.368461137615839,2022-06-05 21:21:07
671,Main,7,1,10,Graphic designer,True,a_AD,a_BD,True,False,False,Probably same,0,0.0,266.7,3250.0,8.086410275323782,2022-06-05 21:21:07
672,Main,7,1,11,Graphic designer,True,r_BC,r_AD,True,True,False,Probably same,0,0.0,266.7,2734.0,7.913521017283895,2022-06-05 21:21:07
673,Main,7,1,12,Graphic designer,True,c_AA,c_DD,False,True,False,Sure different,1,3.141592653589793,266.7,3308.0,8.104099056143582,2022-06-05 21:21:07
674,Main,7,1,13,Graphic designer,True,n_BC,n_AD,True,True,False,Probably different,1,3.141592653589793,266.7,3802.0,8.243282523048375,2022-06-05 21:21:07
675,Main,7,1,14,Graphic designer,True,p_AA,p_DD,False,True,False,Probably different,1,3.141592653589793,266.7,5580.0,8.626944055375356,2022-06-05 21:21:07
676,Main,7,1,15,Graphic designer,True,b_AB,b_AD,True,False,True,Probably same,1,3.141592653589793,266.7,4084.0,8.314832179284556,2022-06-05 21:21:07
677,Main,7,1,16,Graphic designer,True,n_AB,n_AD,True,False,True,Probably different,0,0.0,266.7,4432.0,8.39660622842712,2022-06-05 21:21:07
678,Main,7,1,17,Graphic designer,True,r_AD,r_AD,True,True,True,Probably same,1,3.141592653589793,266.7,3308.0,8.104099056143582,2022-06-05 21:21:07
679,Main,7,1,18,Graphic designer,True,q_AD,q_BC,True,True,False,Probably same,0,0.0,266.7,3375.0,8.12415060330663,2022-06-05 21:21:07
680,Main,7,1,19,Graphic designer,True,p_AD,p_BD,True,False,False,Sure different,1,3.141592653589793,266.7,3014.0,8.01102337918644,2022-06-05 21:21:07
681,Main,7,1,20,Graphic designer,True,b_AD,b_BC,True,True,False,Sure different,1,3.141592653589793,266.7,3364.0,8.120886021092838,2022-06-05 21:21:07
682,Main,7,1,21,Graphic designer,True,b_DD,b_AA,False,True,False,Sure different,1,3.141592653589793,266.7,2588.0,7.858640655620791,2022-06-05 21:21:07
683,Main,7,1,22,Graphic designer,True,q_AD,q_BD,True,False,False,Probably same,0,0.0,266.7,3983.0,8.289790583181643,2022-06-05 21:21:07
684,Main,7,1,23,Graphic designer,True,c_AD,c_AB,True,False,True,Sure same,1,3.141592653589793,266.7,3948.0,8.280964400553373,2022-06-05 21:21:07
685,Main,7,1,24,Graphic designer,True,h_AD,h_AD,True,True,True,Sure same,1,3.141592653589793,266.7,2610.0,7.867105500316739,2022-06-05 21:21:07
686,Main,7,1,25,Graphic designer,True,a_AD,a_AB,True,False,True,Probably same,1,3.141592653589793,266.7,3274.0,8.09376775793108,2022-06-05 21:21:07
687,Main,7,1,26,Graphic designer,True,t_AD,t_AB,True,False,True,Probably same,1,3.141592653589793,266.7,3274.0,8.09376775793108,2022-06-05 21:21:07
688,Main,7,1,27,Graphic designer,True,t_AA,t_AA,False,True,True,Sure same,1,3.141592653589793,266.7,3059.0,8.025843344150903,2022-06-05 21:21:07
689,Main,7,1,28,Graphic designer,True,z_AD,z_AD,True,True,True,Probably same,1,3.141592653589793,266.7,4175.0,8.336869637284956,2022-06-05 21:21:07
690,Main,7,1,29,Graphic designer,True,a_AA,a_AA,False,True,True,Probably same,1,3.141592653589793,266.7,2407.0,7.786136437783072,2022-06-05 21:21:07
691,Main,7,1,30,Graphic designer,True,e_DD,e_AA,False,True,False,Probably same,0,0.0,266.7,3982.0,8.289539484624141,2022-06-05 21:21:07
